Ax,Ay,Az,Gx,Gy,Gz,Ix,Iy,Iz,dTemp,Temp ,Press,Time
6,92,16548,8,-4,-19,-98,-275,-601,-8884,8.58,1008.33,17139
-4,110,16502,9,-2,-21,-98,-273,-600,-8881,9.26,1010.08,17152
0,102,16524,8,-4,-21,-100,-274,-599,-8886,9.26,1008.07,17168
10,122,16484,8,-5,-20,-97,-274,-599,-8877,9.31,1008.2,17185
42,108,16546,9,-4,-20,-98,-278,-606,-8884,9.31,1008.09,17202
8,114,16556,8,-3,-21,-97,-274,-605,-8890,9.35,1008.2,17218
-8,134,16502,10,-5,-21,-99,-275,-590,-8885,9.35,1008.1,17235
-24,140,16514,8,-4,-21,-97,-272,-597,-8881,9.39,1008.2,17253
-8,92,16520,8,-3,-20,-99,-275,-603,-8885,9.39,1008.12,17269
-10,116,16550,9,-4,-20,-97,-277,-602,-8882,9.42,1008.2,17287
-8,132,16550,9,-4,-20,-98,-274,-596,-8875,9.42,1008.13,17303
-26,108,16562,8,-4,-19,-99,-270,-599,-8884,9.45,1008.2,17320
-4,136,16532,8,-1,-21,-96,-274,-598,-8874,9.45,1008.15,17338
-22,110,16488,9,-4,-21,-98,-274,-603,-8879,9.48,1008.21,17354
64,140,16472,9,-5,-20,-98,-272,-600,-8881,9.48,1008.16,17372
-46,96,16532,9,-4,-21,-97,-274,-594,-8882,9.5,1008.22,17388
6,102,16492,7,-2,-21,-97,-273,-599,-8873,9.5,1008.15,17405
-8,92,16530,9,-4,-21,-98,-273,-601,-8867,9.52,1008.21,17422
46,84,16496,8,-2,-20,-96,-274,-603,-8876,9.52,1008.18,17438
0,94,16554,8,-2,-21,-94,-275,-598,-8874,9.54,1008.22,17455
-32,110,16540,8,-5,-21,-99,-274,-597,-8874,9.54,1008.16,17472
26,92,16534,9,-3,-21,-95,-276,-597,-8874,9.55,1008.2,17488
-22,116,16504,8,-5,-21,-99,-273,-603,-8877,9.55,1008.18,17506
32,126,16520,9,-3,-21,-97,-274,-596,-8868,9.57,1008.22,17522
-66,106,16500,8,-4,-20,-96,-273,-596,-8870,9.57,1008.2,17540
-38,110,16526,9,-3,-21,-98,-275,-600,-8872,9.58,1008.24,17557
-32,86,16536,9,-3,-22,-99,-273,-599,-8876,9.58,1008.17,17574
-24,90,16540,8,-3,-21,-100,-275,-602,-8867,9.59,1008.2,17591
-26,92,16566,8,-4,-20,-101,-275,-596,-8863,9.59,1008.18,17608
14,112,16544,9,-3,-20,-100,-273,-600,-8877,9.6,1008.21,17626
-4,126,16560,8,-4,-20,-98,-274,-601,-8873,9.6,1008.18,17642
34,114,16568,9,-2,-19,-97,-273,-601,-8876,9.61,1008.2,17659
-22,110,16534,10,-3,-20,-96,-277,-601,-8869,9.61,1008.18,17677
-8,106,16498,9,-5,-19,-94,-273,-595,-8879,9.62,1008.19,17693
-16,98,16604,9,-4,-21,-97,-270,-600,-8869,9.62,1008.18,17711
-26,106,16518,9,-3,-22,-99,-273,-600,-8871,9.63,1008.2,17728
-30,108,16556,10,-4,-20,-99,-276,-598,-8865,9.63,1008.2,17745
-18,88,16476,9,-5,-19,-99,-271,-596,-8870,9.64,1008.21,17762
0,98,16534,8,-3,-20,-98,-274,-598,-8869,9.64,1008.18,17778
-10,150,16522,8,-4,-21,-99,-275,-600,-8872,9.64,1008.2,17796
30,104,16486,9,-5,-21,-100,-275,-600,-8865,9.64,1008.17,17813
16,122,16506,9,-4,-21,-98,-274,-598,-8858,9.65,1008.19,17829
2,134,16562,8,-4,-22,-97,-274,-597,-8866,9.65,1008.18,17846
4,114,16550,9,-4,-20,-98,-272,-599,-8863,9.66,1008.19,17863
8,102,16584,9,-4,-20,-101,-276,-602,-8865,9.66,1008.17,17880
4,120,16452,7,-4,-21,-99,-274,-601,-8862,9.67,1008.2,17896
38,94,16580,9,-5,-19,-101,-273,-599,-8851,9.67,1008.17,17913
-28,118,16584,8,-4,-20,-98,-273,-598,-8861,9.67,1008.19,17931
-10,102,16520,8,-3,-21,-99,-273,-595,-8861,9.67,1008.19,17947
16,106,16496,9,-3,-20,-98,-275,-604,-8862,9.68,1008.21,17965
-26,138,16522,9,-4,-21,-97,-277,-601,-8856,9.68,1008.19,17982
0,114,16488,8,-3,-21,-94,-274,-599,-8756,9.81,1008.15,20814
0,118,16464,8,-3,-21,-95,-277,-602,-8755,9.81,1008.13,20826
-14,128,16562,9,-3,-19,-98,-277,-602,-8756,9.82,1008.17,20843
-6,136,16532,9,-4,-20,-98,-274,-595,-8752,9.82,1008.18,20860
34,132,16444,8,-4,-21,-98,-273,-598,-8752,9.84,1008.21,20877
-18,104,16552,9,-3,-20,-97,-273,-600,-8754,9.84,1008.16,20894
-22,88,16530,7,-3,-21,-97,-278,-600,-8751,9.84,1008.18,20911
8,120,16514,8,-4,-21,-96,-274,-599,-8752,9.84,1008.17,20928
12,102,16462,7,-2,-20,-98,-273,-595,-8757,9.85,1008.2,20944
2,104,16524,9,-4,-22,-97,-272,-600,-8760,9.85,1008.18,20961
-20,126,16494,8,-3,-20,-99,-275,-599,-8755,9.86,1008.2,20978
24,106,16526,9,-4,-21,-99,-276,-602,-8749,9.86,1008.17,20996
20,118,16580,8,-4,-22,-96,-276,-598,-8750,9.87,1008.2,21012
-10,124,16512,9,-4,-21,-96,-273,-597,-8751,9.87,1008.15,21029
-12,126,16442,9,-4,-22,-100,-273,-600,-8752,9.88,1008.17,21047
36,142,16468,9,-4,-20,-99,-272,-598,-8748,9.88,1008.18,21063
2,84,16420,8,-3,-21,-96,-277,-601,-8748,9.88,1008.19,21080
-18,118,16516,9,-4,-22,-96,-272,-599,-8752,9.88,1008.19,21097
-28,100,16478,8,-3,-21,-98,-272,-600,-8748,9.89,1008.21,21114
-4,120,16498,8,-4,-20,-99,-275,-600,-8742,9.89,1008.17,21131
4,118,16462,8,-3,-22,-97,-274,-600,-8743,9.89,1008.18,21148
44,126,16552,9,-3,-21,-95,-276,-598,-8741,9.89,1008.17,21165
10,104,16540,9,-4,-20,-95,-272,-597,-8742,9.9,1008.19,21182
-34,98,16476,9,-2,-20,-99,-275,-596,-8744,9.9,1008.2,21198
4,78,16474,9,-4,-21,-97,-275,-600,-8741,9.91,1008.21,21215
-2,104,16522,9,-3,-22,-96,-275,-600,-8743,9.91,1008.18,21232
0,138,16458,10,-3,-21,-96,-274,-600,-8742,9.91,1008.19,21249
-24,106,16444,8,-4,-20,-99,-274,-601,-8742,9.91,1008.19,21266
54,114,16488,8,-2,-20,-98,-276,-601,-8747,9.92,1008.2,21282
2,84,16518,8,-4,-21,-95,-274,-599,-8747,9.92,1008.16,21299
-42,86,16546,9,-3,-21,-97,-274,-601,-8741,9.93,1008.18,21316
16,90,16530,8,-2,-20,-95,-274,-598,-8741,9.93,1008.17,21332
-24,96,16482,9,-3,-20,-97,-275,-596,-8738,9.93,1008.18,21350
-20,82,16504,10,-3,-20,-98,-277,-600,-8736,9.93,1008.17,21366
-18,130,16518,9,-4,-21,-98,-275,-602,-8739,9.93,1008.19,21384
-14,122,16508,8,-4,-20,-98,-276,-601,-8738,9.93,1008.17,21401
12,114,16484,8,-4,-22,-97,-277,-596,-8738,9.93,1008.18,21417
-46,130,16492,8,-4,-21,-97,-278,-602,-8736,9.93,1008.19,21435
0,130,16518,9,-3,-21,-95,-275,-602,-8743,9.94,1008.19,21451
-18,102,16502,9,-4,-21,-98,-275,-602,-8740,9.94,1008.17,21469
-26,96,16504,9,-3,-21,-98,-275,-593,-8740,9.94,1008.18,21486
-2,94,16536,9,-2,-20,-97,-273,-597,-8741,9.94,1008.16,21502
-16,132,16512,8,-4,-20,-100,-275,-606,-8745,9.95,1008.17,21520
20,118,16508,8,-3,-21,-93,-276,-601,-8732,9.95,1008.16,21536
-24,114,16560,8,-4,-21,-99,-275,-596,-8738,9.95,1008.17,21554
20,122,16444,9,-3,-20,-98,-274,-599,-8736,9.95,1008.15,21571
-20,130,16522,8,-3,-20,-101,-273,-601,-8734,9.96,1008.17,21588
34,154,16534,9,-4,-20,-97,-274,-600,-8733,9.96,1008.17,21605
14,100,16500,9,-4,-20,-98,-276,-600,-8731,9.96,1008.19,21622
-34,122,16526,9,-5,-21,-97,-275,-597,-8730,9.96,1008.15,21639
38,130,16548,8,-3,-20,-97,-273,-597,-8732,9.96,1008.15,21656
6,132,16468,9,-2,-20,-94,-273,-594,-8633,10.1,1008.05,24488
28,116,16520,8,-3,-20,-96,-273,-599,-8628,10.12,1008.1,24501
42,146,16462,9,-3,-22,-95,-270,-600,-8631,10.12,1008.07,24518
38,108,16500,9,-3,-22,-99,-274,-601,-8631,10.13,1008.11,24536
-6,144,16436,8,-3,-21,-97,-273,-598,-8623,10.13,1008.05,24553
8,110,16506,8,-4,-21,-98,-274,-597,-8626,10.15,1008.09,24569
18,134,16476,8,-4,-21,-98,-270,-599,-8619,10.15,1008.07,24587
40,116,16484,9,-4,-21,-99,-272,-601,-8631,10.15,1008.09,24604
-4,96,16504,8,-4,-19,-96,-275,-599,-8622,10.15,1008.07,24621
-12,100,16474,8,-2,-20,-94,-273,-600,-8630,10.16,1008.09,24638
-30,108,16518,8,-2,-20,-98,-273,-599,-8619,10.16,1008.06,24655
-24,96,16420,10,-4,-21,-99,-273,-598,-8624,10.17,1008.07,24673
-4,120,16470,7,-3,-21,-98,-273,-599,-8619,10.17,1008.08,24690
-58,156,16484,9,-3,-21,-102,-275,-600,-8624,10.18,1008.1,24708
18,80,16424,9,-3,-22,-96,-272,-597,-8627,10.18,1008.06,24725
2,124,16524,9,-4,-20,-98,-273,-594,-8613,10.18,1008.08,24741
4,114,16526,10,-4,-20,-98,-272,-600,-8622,10.18,1008.08,24759
-14,106,16444,8,-3,-21,-94,-274,-600,-8624,10.19,1008.09,24776
-22,120,16488,9,-3,-22,-98,-273,-598,-8627,10.19,1008.06,24794
0,106,16488,9,-4,-21,-96,-274,-596,-8620,10.2,1008.07,24811
-28,134,16454,8,-1,-20,-99,-272,-597,-8625,10.2,1008.07,24828
-44,120,16504,8,-3,-20,-97,-273,-599,-8618,10.21,1008.1,24846
-14,122,16488,7,-3,-21,-98,-273,-601,-8613,10.21,1008.09,24863
-20,118,16498,9,-4,-21,-95,-273,-595,-8630,10.21,1008.1,24881
30,112,16472,8,-4,-21,-98,-273,-597,-8616,10.21,1008.06,24897
-24,124,16502,8,-2,-23,-98,-274,-601,-8617,10.22,1008.08,24914
8,122,16472,9,-5,-20,-98,-276,-599,-8612,10.22,1008.08,24932
6,88,16486,8,-4,-21,-97,-274,-600,-8618,10.22,1008.1,24948
4,144,16482,8,-3,-20,-99,-276,-597,-8614,10.22,1008.07,24966
-12,96,16482,8,-3,-20,-99,-275,-597,-8618,10.23,1008.09,24982
4,132,16454,10,-2,-22,-98,-271,-601,-8615,10.23,1008.08,24999
-30,88,16456,9,-3,-20,-96,-274,-597,-8608,10.24,1008.09,25017
16,144,16468,8,-3,-21,-100,-274,-597,-8609,10.24,1008.09,25034
28,98,16498,9,-3,-20,-94,-273,-592,-8610,10.24,1008.11,25051
-6,134,16538,8,-3,-20,-98,-274,-599,-8614,10.24,1008.08,25068
-40,74,16486,8,-2,-20,-98,-274,-601,-8606,10.25,1008.09,25085
-18,52,16490,9,-2,-22,-95,-273,-598,-8607,10.25,1008.07,25103
-38,112,16476,8,-2,-21,-98,-274,-597,-8605,10.25,1008.09,25120
12,124,16506,8,-3,-20,-98,-272,-601,-8613,10.25,1008.07,25137
32,134,16510,8,-3,-20,-97,-273,-602,-8602,10.26,1008.08,25154
54,112,16506,9,-4,-22,-97,-271,-597,-8605,10.26,1008.06,25171
-20,118,16516,9,-2,-21,-98,-272,-596,-8603,10.26,1008.07,25189
-18,132,16482,7,-4,-23,-99,-274,-598,-8606,10.26,1008.05,25206
12,144,16470,9,-2,-20,-97,-271,-601,-8605,10.26,1008.06,25224
36,138,16520,8,-3,-20,-97,-274,-601,-8602,10.26,1008.06,25241
-24,102,16450,8,-2,-20,-97,-271,-593,-8605,10.27,1008.07,25259
-2,112,16538,9,-3,-22,-98,-272,-596,-8599,10.27,1008.1,25275
-4,92,16392,9,-3,-21,-98,-272,-598,-8602,10.28,1008.11,25292
4,126,16550,8,-3,-20,-99,-272,-599,-8609,10.28,1008.11,25309
-4,122,16506,9,-4,-21,-97,-273,-598,-8598,10.28,1008.11,25326
-14,106,16510,9,-3,-20,-95,-272,-597,-8601,10.28,1008.07,25344
-40,154,16454,8,-3,-21,-94,-273,-599,-8541,10.36,1008.07,28177
-34,122,16432,9,-4,-20,-98,-274,-600,-8546,10.37,1008.1,28190
-18,130,16450,9,-2,-20,-97,-273,-595,-8537,10.37,1008.03,28208
-26,112,16542,8,-5,-21,-98,-273,-594,-8535,10.38,1008.05,28225
48,130,16362,9,-4,-22,-96,-274,-600,-8537,10.38,1008.04,28242
-14,90,16446,9,-4,-20,-100,-275,-595,-8542,10.38,1008.06,28260
16,86,16462,9,-2,-21,-99,-274,-601,-8539,10.38,1008.05,28277
-4,98,16486,10,-3,-20,-98,-274,-598,-8545,10.4,1008.08,28294
14,124,16424,7,-4,-21,-98,-271,-599,-8540,10.4,1008.04,28311
-12,116,16440,9,-3,-20,-94,-274,-599,-8538,10.4,1008.06,28328
8,96,16476,7,-2,-20,-96,-274,-602,-8550,10.4,1008.07,28345
-26,110,16452,8,-3,-19,-98,-275,-596,-8537,10.41,1008.08,28362
6,126,16512,9,-3,-20,-99,-272,-598,-8538,10.41,1008.05,28380
22,102,16388,9,-2,-22,-101,-273,-607,-8541,10.42,1008.07,28397
-2,106,16486,8,-4,-21,-98,-271,-600,-8535,10.42,1008.04,28414
0,126,16480,9,-4,-21,-100,-271,-597,-8534,10.42,1008.06,28431
-16,90,16422,8,-4,-21,-99,-273,-598,-8539,10.42,1008.05,28448
20,112,16474,9,-4,-22,-94,-275,-598,-8542,10.43,1008.06,28466
0,102,16524,9,-3,-21,-99,-274,-601,-8533,10.43,1008.07,28482
8,94,16434,8,-4,-22,-98,-274,-600,-8523,10.44,1008.09,28499
-12,92,16518,8,-3,-21,-96,-272,-594,-8536,10.44,1008.04,28516
0,118,16456,8,-4,-20,-93,-274,-599,-8532,10.44,1008.04,28533
24,138,16462,9,-3,-21,-97,-272,-603,-8531,10.44,1008.05,28551
24,138,16476,8,-2,-20,-98,-274,-598,-8524,10.45,1008.07,28567
2,94,16500,9,-3,-21,-99,-276,-597,-8528,10.45,1008.06,28584
-16,134,16454,9,-3,-21,-99,-271,-598,-8530,10.45,1008.07,28602
18,86,16418,8,-4,-21,-96,-271,-603,-8533,10.45,1008.05,28618
62,136,16510,9,-3,-18,-96,-274,-601,-8525,10.46,1008.06,28636
8,82,16434,9,-5,-21,-98,-272,-599,-8533,10.46,1008.06,28652
10,68,16430,9,-3,-20,-99,-273,-598,-8527,10.46,1008.07,28669
-12,66,16420,7,-4,-21,-98,-270,-600,-8530,10.46,1008.07,28686
-22,120,16480,8,-4,-20,-99,-274,-601,-8532,10.46,1008.07,28703
-20,104,16498,9,-3,-21,-96,-274,-601,-8525,10.46,1008.05,28721
-24,94,16500,8,-4,-20,-97,-274,-591,-8527,10.47,1008.07,28738
18,160,16464,8,-3,-21,-97,-271,-598,-8532,10.47,1008.04,28755
38,138,16464,8,-3,-19,-100,-270,-599,-8520,10.47,1008.05,28773
22,86,16432,8,-3,-21,-98,-272,-600,-8526,10.47,1008.04,28789
-36,104,16462,9,-2,-21,-97,-270,-597,-8525,10.48,1008.06,28807
42,92,16434,9,-1,-21,-97,-273,-597,-8519,10.48,1008.03,28824
2,112,16412,9,-3,-20,-97,-271,-596,-8527,10.48,1008.03,28840
0,138,16472,8,-4,-21,-99,-272,-598,-8528,10.48,1008.07,28858
-36,148,16396,8,-4,-20,-97,-274,-604,-8520,10.48,1008.09,28875
-30,118,16478,8,-3,-21,-97,-271,-598,-8522,10.48,1008.06,28893
12,122,16486,9,-3,-21,-100,-272,-599,-8519,10.49,1008.06,28910
-28,116,16482,8,-2,-21,-100,-272,-596,-8517,10.49,1008.06,28928
30,122,16420,9,-3,-21,-98,-275,-600,-8523,10.49,1008.07,28945
8,110,16472,7,-3,-21,-98,-271,-599,-8517,10.49,1008.07,28962
20,116,16440,8,-2,-20,-98,-273,-596,-8520,10.49,1008.07,28979
0,112,16476,8,-3,-21,-100,-271,-599,-8513,10.49,1008.06,28996
34,126,16452,9,-4,-21,-97,-271,-595,-8524,10.5,1008.07,29014
-6,102,16502,9,-3,-21,-98,-273,-599,-8525,10.5,1008.05,29031
-2,122,16476,8,-4,-21,-96,-275,-598,-8428,10.56,1008.04,31864
-44,92,16458,7,-3,-21,-99,-273,-599,-8440,10.58,1008.08,31877
-14,76,16520,9,-4,-21,-96,-274,-600,-8435,10.58,1008.04,31894
-34,112,16496,8,-3,-20,-96,-273,-595,-8432,10.59,1008.06,31911
24,104,16478,9,-2,-21,-97,-271,-594,-8439,10.59,1007.99,31929
-18,118,16398,10,-4,-21,-94,-273,-600,-8433,10.6,1008.02,31946
-22,148,16444,9,-2,-20,-96,-273,-601,-8435,10.6,1008.03,31964
6,126,16482,8,-4,-20,-94,-273,-597,-8429,10.6,1008.04,31981
0,124,16468,9,-3,-20,-97,-272,-594,-8426,10.6,1007.99,31997
0,60,16532,9,-3,-20,-98,-272,-597,-8429,10.61,1008.01,32014
-18,96,16406,8,-3,-19,-97,-273,-599,-8430,10.61,1008,32031
-8,118,16438,8,-2,-21,-96,-271,-598,-8428,10.62,1008.03,32049
-32,96,16426,10,-4,-20,-100,-270,-594,-8437,10.62,1008.04,32066
-6,62,16492,9,-3,-21,-100,-269,-595,-8425,10.63,1008.05,32083
32,146,16478,8,-5,-21,-99,-274,-600,-8434,10.63,1008.02,32101
-48,130,16462,8,-3,-20,-96,-272,-598,-8425,10.63,1008.03,32118
-50,132,16404,9,-2,-20,-99,-273,-595,-8427,10.63,1008.04,32136
42,92,16466,8,-3,-19,-96,-273,-597,-8426,10.64,1008.05,32152
-32,96,16426,9,-3,-20,-99,-273,-599,-8437,10.64,1008.02,32169
-8,102,16448,10,-3,-19,-98,-271,-598,-8429,10.65,1008.04,32187
-12,108,16456,9,-3,-21,-96,-273,-598,-8437,10.65,1008.02,32204
26,126,16418,8,-3,-21,-99,-272,-589,-8430,10.65,1008.03,32222
-22,112,16478,9,-3,-20,-100,-270,-597,-8434,10.65,1008.02,32239
4,118,16480,8,-3,-20,-98,-272,-599,-8427,10.65,1008.03,32256
-6,110,16458,8,-2,-21,-97,-273,-598,-8436,10.65,1008.03,32273
12,88,16474,8,-3,-21,-97,-274,-600,-8436,10.66,1008.04,32290
-4,86,16458,9,-2,-20,-97,-273,-597,-8422,10.66,1008.04,32307
16,98,16412,9,-3,-20,-101,-271,-597,-8425,10.67,1008.05,32324
-10,124,16430,9,-4,-20,-97,-271,-598,-8422,10.67,1008.04,32342
-10,128,16392,9,-2,-20,-96,-273,-596,-8421,10.67,1008.04,32359
-26,92,16384,8,-2,-21,-98,-273,-595,-8422,10.67,1008.02,32376
2,156,16434,8,-3,-21,-97,-271,-596,-8422,10.67,1008.03,32393
-48,118,16446,8,-3,-20,-99,-274,-599,-8417,10.67,1008.03,32410
-4,110,16468,8,-2,-21,-96,-272,-595,-8421,10.68,1008.05,32428
6,132,16470,8,-3,-20,-98,-274,-594,-8418,10.68,1008.03,32445
4,144,16402,9,-3,-20,-97,-271,-597,-8416,10.68,1008.04,32461
-10,108,16440,9,-3,-20,-97,-272,-596,-8422,10.68,1008.04,32479
8,136,16434,8,-3,-21,-98,-275,-595,-8418,10.69,1008.04,32496
2,116,16464,8,-3,-21,-98,-273,-598,-8414,10.69,1008.02,32513
4,112,16412,9,-2,-20,-97,-272,-594,-8419,10.69,1008.04,32530
8,134,16464,8,-2,-21,-99,-272,-593,-8421,10.69,1008.06,32546
-2,90,16418,9,-2,-19,-94,-271,-596,-8412,10.7,1008.07,32564
-4,132,16392,8,-2,-21,-97,-272,-598,-8420,10.7,1008.02,32580
-22,86,16414,9,-3,-21,-98,-272,-595,-8413,10.7,1008.02,32598
-30,114,16392,8,-3,-21,-98,-273,-596,-8418,10.7,1008.01,32615
-8,100,16454,9,-4,-20,-96,-275,-598,-8416,10.71,1008.02,32632
42,90,16462,8,-3,-20,-96,-276,-601,-8405,10.71,1008.02,32649
34,106,16458,9,-4,-21,-97,-273,-599,-8409,10.71,1008.02,32666
-12,72,16424,8,-3,-19,-97,-272,-593,-8405,10.71,1008.05,32684
32,142,16432,8,-3,-20,-94,-271,-594,-8401,10.71,1008.06,32701
-2,98,16472,8,-1,-21,-99,-274,-602,-8406,10.71,1008.04,32717
22,138,16472,9,-4,-22,-98,-271,-595,-8313,10.85,1007.98,35551
16,104,16456,8,-4,-20,-96,-273,-599,-8315,10.87,1008.01,35564
-6,110,16436,10,-3,-21,-97,-273,-599,-8319,10.87,1007.93,35581
14,102,16452,9,-2,-20,-97,-272,-593,-8316,10.88,1007.97,35599
-20,112,16438,8,-3,-21,-100,-272,-593,-8313,10.88,1007.95,35616
-4,134,16474,8,-4,-20,-101,-274,-596,-8309,10.89,1007.98,35634
22,110,16454,9,-2,-20,-98,-271,-597,-8307,10.89,1007.95,35651
-36,124,16416,8,-3,-21,-101,-273,-594,-8318,10.9,1007.97,35668
-16,70,16456,9,-3,-21,-95,-271,-593,-8313,10.9,1007.96,35686
-6,130,16452,8,-3,-20,-98,-271,-592,-8311,10.91,1007.97,35702
20,104,16476,9,-4,-22,-100,-271,-599,-8307,10.91,1007.96,35720
-6,124,16466,8,-3,-20,-98,-273,-598,-8318,10.92,1007.97,35737
-24,122,16400,9,-2,-19,-100,-274,-597,-8302,10.92,1007.99,35755
24,164,16482,10,-2,-21,-98,-271,-589,-8304,10.92,1008.01,35772
-20,148,16400,10,-3,-21,-100,-274,-595,-8310,10.92,1007.96,35790
-30,148,16438,8,-4,-20,-98,-271,-597,-8305,10.93,1007.98,35808
-8,88,16440,8,-3,-21,-101,-274,-598,-8309,10.93,1007.96,35825
-12,104,16442,9,-3,-21,-97,-272,-593,-8301,10.94,1007.97,35843
-12,130,16398,9,-4,-21,-98,-270,-596,-8312,10.94,1007.97,35860
-38,76,16432,9,-2,-20,-99,-271,-598,-8308,10.94,1007.99,35876
34,108,16388,8,-3,-21,-100,-271,-597,-8298,10.94,1007.97,35895
-36,96,16408,8,-3,-20,-99,-271,-591,-8297,10.95,1007.99,35911
30,142,16444,9,-2,-21,-96,-272,-594,-8302,10.95,1007.96,35929
-8,122,16472,9,-1,-21,-98,-271,-597,-8305,10.96,1007.97,35946
14,136,16476,10,-4,-22,-101,-274,-594,-8303,10.96,1007.97,35963
-40,84,16422,9,-3,-21,-98,-273,-595,-8304,10.96,1007.99,35981
16,158,16428,8,-1,-22,-95,-271,-593,-8306,10.96,1007.98,35998
44,122,16454,9,-1,-20,-98,-270,-595,-8299,10.97,1007.99,36015
12,132,16446,9,-2,-22,-98,-273,-597,-8304,10.97,1007.97,36032
-28,150,16458,8,-2,-21,-98,-274,-597,-8301,10.98,1007.99,36049
14,144,16518,8,-3,-20,-97,-273,-594,-8305,10.98,1007.97,36067
36,98,16470,8,0,-22,-97,-273,-595,-8295,10.98,1007.98,36083
0,122,16460,9,-3,-21,-97,-273,-598,-8301,10.98,1007.97,36101
26,128,16428,10,-3,-20,-96,-271,-595,-8293,10.99,1007.99,36118
60,106,16412,9,-3,-21,-97,-274,-594,-8290,10.99,1007.97,36134
14,94,16414,9,-2,-21,-98,-270,-594,-8294,10.99,1007.98,36152
10,88,16448,8,-3,-21,-97,-272,-594,-8293,10.99,1007.96,36168
20,138,16390,9,-3,-20,-97,-272,-597,-8292,11,1007.98,36186
44,122,16412,9,-3,-20,-96,-273,-596,-8295,11,1007.95,36203
16,90,16416,8,-2,-21,-98,-272,-596,-8292,11.01,1007.96,36219
-14,84,16394,8,-2,-21,-97,-271,-595,-8292,11.01,1007.96,36237
20,64,16422,9,-2,-21,-98,-273,-596,-8298,11.01,1007.96,36254
-14,114,16440,8,-2,-22,-100,-273,-598,-8295,11.01,1007.98,36272
2,138,16386,9,-4,-21,-97,-273,-598,-8288,11.01,1007.99,36288
-26,132,16416,8,-3,-20,-96,-271,-592,-8287,11.01,1007.95,36305
6,132,16380,9,-2,-21,-98,-272,-597,-8295,11.02,1007.97,36323
-2,116,16362,10,-2,-20,-99,-271,-599,-8296,11.02,1007.97,36340
10,108,16450,9,-2,-21,-99,-272,-596,-8289,11.02,1007.97,36358
-2,80,16388,9,-3,-20,-98,-273,-596,-8293,11.02,1007.97,36374
26,108,16428,9,-2,-21,-97,-272,-595,-8299,11.03,1007.98,36391
12,96,16418,7,-2,-21,-99,-272,-594,-8288,11.03,1007.98,36408
8,140,16386,9,-2,-20,-98,-270,-596,-8222,11.12,1007.98,39242
4,110,16372,9,-2,-22,-99,-272,-596,-8224,11.13,1008.02,39255
-4,106,16406,10,-2,-21,-97,-269,-594,-8221,11.13,1007.92,39272
-6,100,16490,8,-3,-22,-96,-275,-595,-8222,11.15,1007.97,39288
2,110,16384,8,-3,-21,-95,-275,-595,-8224,11.15,1007.97,39306
16,124,16412,8,-2,-21,-98,-272,-598,-8222,11.15,1007.98,39323
-16,114,16420,8,-4,-21,-98,-273,-596,-8228,11.15,1007.93,39341
0,106,16400,9,-2,-21,-93,-271,-594,-8216,11.16,1007.95,39357
30,104,16434,10,-4,-21,-97,-272,-596,-8225,11.16,1007.94,39374
-4,112,16448,9,-3,-20,-99,-277,-596,-8224,11.17,1007.95,39392
10,84,16404,9,-3,-20,-99,-272,-593,-8212,11.17,1007.94,39408
46,106,16460,8,-2,-22,-97,-274,-593,-8219,11.18,1007.96,39426
4,136,16420,9,-2,-20,-98,-275,-596,-8213,11.18,1007.95,39443
-14,116,16396,9,-3,-21,-96,-274,-598,-8224,11.18,1007.96,39460
-2,84,16422,8,-5,-21,-97,-273,-596,-8220,11.18,1007.96,39477
22,118,16376,9,-2,-20,-99,-272,-594,-8223,11.19,1007.97,39494
-30,104,16438,9,-3,-21,-97,-272,-590,-8216,11.19,1007.93,39512
-12,94,16480,9,-2,-21,-101,-273,-588,-8225,11.19,1007.95,39529
10,110,16442,9,-2,-20,-95,-275,-593,-8214,11.19,1007.93,39546
-2,86,16456,8,-3,-21,-97,-272,-590,-8216,11.2,1007.95,39563
2,104,16414,8,-3,-20,-96,-271,-595,-8218,11.2,1007.94,39580
-6,104,16368,8,-3,-20,-98,-274,-603,-8218,11.2,1007.95,39597
4,134,16398,9,-4,-21,-99,-275,-596,-8215,11.2,1007.95,39614
16,70,16450,10,-2,-21,-96,-274,-596,-8221,11.21,1007.97,39631
-12,86,16422,8,-2,-19,-97,-272,-592,-8225,11.21,1007.97,39648
16,116,16412,9,-2,-20,-96,-269,-595,-8225,11.21,1007.97,39665
22,114,16418,9,-2,-21,-96,-273,-596,-8218,11.21,1007.94,39683
-34,108,16404,8,-3,-21,-98,-273,-595,-8214,11.22,1007.96,39700
4,88,16486,8,-2,-22,-97,-272,-593,-8215,11.22,1007.93,39716
-30,114,16428,9,-3,-21,-97,-273,-593,-8213,11.22,1007.95,39734
8,118,16426,9,-2,-20,-96,-273,-600,-8208,11.22,1007.95,39751
-4,108,16350,9,-1,-20,-98,-273,-596,-8215,11.23,1007.96,39769
-26,98,16444,8,-2,-21,-96,-274,-592,-8203,11.23,1007.96,39785
-36,106,16392,9,-2,-20,-99,-272,-597,-8214,11.24,1007.98,39802
-30,70,16396,9,-2,-21,-96,-272,-596,-8210,11.24,1007.95,39820
2,98,16430,8,-1,-21,-96,-273,-596,-8206,11.24,1007.96,39836
6,114,16400,8,-2,-21,-98,-275,-596,-8215,11.24,1007.94,39854
28,112,16416,9,-3,-21,-98,-275,-596,-8207,11.24,1007.95,39871
-10,100,16374,8,-3,-21,-98,-269,-596,-8202,11.24,1007.94,39888
-14,106,16432,9,-3,-21,-97,-272,-595,-8209,11.25,1007.97,39906
-18,106,16468,9,-2,-21,-98,-276,-594,-8208,11.25,1007.99,39923
0,104,16454,9,-2,-21,-95,-275,-594,-8200,11.25,1008,39940
16,96,16382,9,-1,-21,-94,-271,-596,-8209,11.25,1007.95,39957
14,106,16342,9,-3,-21,-99,-269,-595,-8207,11.26,1007.96,39973
6,102,16448,9,-3,-22,-98,-274,-596,-8206,11.26,1007.94,39991
-4,22,16394,9,-2,-21,-98,-274,-597,-8204,11.26,1007.95,40007
-22,126,16440,9,-2,-21,-95,-273,-595,-8203,11.26,1007.94,40025
14,82,16404,8,-3,-22,-96,-270,-592,-8203,11.27,1007.95,40042
6,88,16410,10,-1,-20,-99,-274,-596,-8197,11.27,1007.96,40058
-10,94,16416,10,-1,-20,-99,-273,-598,-8200,11.28,1007.99,40076
8,94,16424,10,-3,-21,-96,-273,-595,-8200,11.28,1007.96,40093
22,84,16436,8,-3,-21,-91,-270,-598,-8134,11.43,1007.9,42927
6,108,16396,8,-1,-21,-99,-271,-593,-8122,11.44,1007.95,42939
34,112,16428,8,-2,-20,-98,-271,-592,-8127,11.44,1007.89,42956
-10,114,16404,9,-3,-19,-97,-271,-596,-8124,11.46,1007.93,42974
-2,140,16378,8,-2,-21,-100,-272,-598,-8125,11.46,1007.92,42991
8,128,16356,8,-1,-21,-100,-271,-598,-8121,11.47,1007.94,43009
38,130,16432,9,-3,-21,-99,-272,-596,-8134,11.47,1007.93,43025
12,82,16456,9,-3,-21,-97,-269,-597,-8124,11.47,1007.94,43042
32,106,16398,9,-1,-20,-98,-272,-595,-8121,11.47,1007.93,43060
22,70,16370,8,-2,-21,-95,-274,-599,-8124,11.48,1007.95,43076
-12,128,16332,9,-3,-22,-94,-273,-594,-8130,11.48,1007.93,43094
28,110,16404,10,-2,-20,-96,-273,-599,-8122,11.49,1007.94,43111
-24,108,16404,9,-3,-23,-95,-271,-595,-8124,11.49,1007.91,43128
48,144,16410,9,-3,-22,-94,-271,-595,-8122,11.49,1007.92,43146
0,68,16420,10,-3,-20,-96,-272,-597,-8128,11.49,1007.93,43162
-18,134,16394,8,-2,-21,-97,-270,-594,-8121,11.5,1007.95,43180
8,86,16388,8,-3,-21,-98,-274,-594,-8119,11.5,1007.93,43197
-18,94,16432,9,-2,-22,-96,-271,-597,-8119,11.51,1007.95,43213
38,100,16386,8,-2,-21,-97,-271,-599,-8115,11.51,1007.93,43231
-58,90,16396,9,-3,-20,-97,-270,-594,-8124,11.51,1007.94,43248
2,98,16438,9,-3,-21,-96,-271,-595,-8124,11.51,1007.92,43265
-2,134,16418,9,-3,-21,-95,-270,-598,-8127,11.52,1007.95,43282
24,114,16430,9,-3,-20,-95,-272,-597,-8128,11.52,1007.95,43299
-4,70,16392,9,-4,-21,-97,-272,-598,-8114,11.53,1007.97,43316
30,116,16410,10,-2,-21,-97,-270,-594,-8118,11.53,1007.92,43333
12,106,16450,8,-2,-21,-97,-271,-599,-8106,11.53,1007.92,43351
28,110,16398,9,-4,-21,-95,-272,-597,-8124,11.53,1007.92,43368
-32,64,16420,8,-2,-21,-97,-273,-597,-8116,11.53,1007.93,43384
8,104,16470,8,-4,-21,-96,-273,-595,-8121,11.53,1007.92,43402
-20,86,16350,8,-3,-20,-98,-270,-593,-8122,11.54,1007.94,43419
4,124,16442,8,-1,-21,-96,-271,-598,-8113,11.54,1007.93,43436
-22,86,16352,9,-1,-21,-94,-272,-597,-8110,11.55,1007.94,43453
12,84,16434,10,-2,-21,-98,-272,-596,-8107,11.55,1007.92,43470
2,114,16392,9,-3,-21,-98,-272,-595,-8111,11.55,1007.93,43487
14,150,16364,9,-3,-21,-99,-271,-594,-8117,11.55,1007.91,43504
-30,132,16406,9,-4,-20,-97,-273,-600,-8112,11.56,1007.93,43522
72,122,16434,9,-2,-20,-98,-273,-593,-8116,11.56,1007.94,43539
54,108,16418,9,-1,-20,-100,-271,-594,-8114,11.56,1007.95,43556
22,122,16346,8,-3,-22,-97,-270,-597,-8110,11.56,1007.94,43574
-22,104,16348,9,-2,-20,-96,-272,-597,-8116,11.56,1007.94,43591
48,102,16414,8,-2,-21,-97,-273,-599,-8117,11.56,1007.91,43608
12,96,16362,9,-3,-22,-95,-274,-598,-8114,11.57,1007.92,43625
-6,102,16392,7,-2,-22,-97,-270,-594,-8105,11.57,1007.91,43642
-34,102,16448,8,-3,-21,-97,-269,-597,-8111,11.57,1007.92,43660
-2,114,16394,9,-3,-20,-99,-273,-597,-8111,11.57,1007.9,43676
-20,78,16448,9,-3,-21,-99,-274,-600,-8111,11.58,1007.91,43694
4,140,16382,9,-3,-21,-95,-272,-594,-8104,11.58,1007.91,43711
18,104,16410,8,-4,-21,-97,-273,-595,-8114,11.58,1007.93,43727
30,152,16424,8,-2,-20,-96,-270,-597,-8105,11.58,1007.9,43745
10,134,16436,9,-3,-20,-98,-272,-598,-8110,11.58,1007.9,43762
-18,110,16388,9,-3,-21,-98,-271,-595,-8104,11.58,1007.93,43780
42,126,16472,9,-2,-21,-102,-269,-597,-8038,11.71,1007.89,46613
14,136,16422,9,-1,-19,-96,-271,-593,-8039,11.73,1007.94,46626
-14,92,16394,8,-2,-22,-97,-270,-590,-8037,11.73,1007.87,46644
-40,112,16402,8,-2,-22,-99,-271,-596,-8042,11.74,1007.89,46661
12,50,16360,9,-2,-21,-96,-270,-596,-8047,11.74,1007.91,46678
58,92,16396,8,-2,-20,-97,-271,-597,-8036,11.75,1007.93,46695
24,124,16428,8,-3,-21,-95,-271,-594,-8043,11.75,1007.89,46711
-18,108,16390,8,-2,-21,-97,-270,-593,-8035,11.76,1007.9,46729
18,130,16412,10,-3,-20,-98,-270,-593,-8035,11.76,1007.89,46746
-6,112,16380,8,-2,-21,-95,-269,-594,-8036,11.76,1007.91,46764
-24,134,16330,9,-3,-21,-96,-274,-595,-8039,11.76,1007.88,46781
20,106,16358,9,0,-21,-100,-271,-591,-8037,11.77,1007.9,46798
-20,88,16366,9,-3,-22,-97,-270,-593,-8036,11.77,1007.9,46816
24,138,16382,10,-2,-21,-98,-272,-596,-8040,11.78,1007.91,46833
-34,148,16356,9,-3,-21,-97,-274,-594,-8043,11.78,1007.91,46851
42,118,16416,9,-2,-20,-97,-272,-596,-8037,11.78,1007.93,46867
26,78,16404,9,-2,-20,-98,-272,-590,-8042,11.78,1007.88,46884
16,112,16418,8,-2,-21,-98,-274,-593,-8044,11.79,1007.89,46902
-20,92,16388,10,-3,-19,-100,-270,-594,-8040,11.79,1007.89,46919
26,118,16352,9,-2,-21,-95,-272,-597,-8042,11.8,1007.91,46937
14,98,16420,9,-2,-21,-96,-271,-591,-8033,11.8,1007.93,46953
-2,156,16344,9,-2,-21,-101,-270,-589,-8030,11.8,1007.94,46970
2,112,16378,9,-2,-21,-97,-270,-597,-8034,11.8,1007.89,46988
-2,116,16378,9,-1,-21,-98,-273,-597,-8030,11.8,1007.9,47004
-48,96,16438,9,-3,-21,-97,-273,-594,-8036,11.8,1007.88,47022
6,130,16386,9,-2,-22,-95,-272,-590,-8029,11.81,1007.89,47039
14,112,16342,8,-3,-22,-96,-270,-594,-8036,11.81,1007.88,47055
-2,98,16376,9,-3,-23,-98,-273,-597,-8040,11.82,1007.9,47073
48,114,16390,8,-4,-21,-100,-270,-595,-8028,11.82,1007.87,47090
34,76,16366,9,-3,-21,-96,-270,-582,-8024,11.82,1007.88,47107
28,124,16344,9,0,-21,-96,-269,-593,-8028,11.82,1007.91,47124
6,112,16386,8,-1,-20,-99,-270,-597,-8035,11.82,1007.92,47140
-18,132,16414,9,-2,-21,-96,-273,-596,-8030,11.82,1007.89,47159
-30,102,16402,9,-1,-21,-100,-272,-588,-8031,11.83,1007.9,47176
-24,124,16306,8,-3,-20,-99,-268,-594,-8028,11.83,1007.9,47194
2,120,16378,8,-1,-20,-98,-270,-595,-8023,11.83,1007.91,47210
4,116,16354,8,-1,-20,-98,-270,-595,-8033,11.83,1007.89,47227
58,134,16358,9,-2,-19,-94,-272,-591,-8028,11.84,1007.91,47245
-32,100,16392,9,-2,-21,-95,-270,-593,-8031,11.84,1007.91,47262
14,116,16380,9,-2,-18,-99,-269,-592,-8036,11.84,1007.92,47279
38,116,16418,8,-2,-21,-97,-270,-594,-8034,11.84,1007.92,47296
2,90,16384,8,-3,-22,-100,-272,-593,-8032,11.84,1007.92,47313
-26,110,16392,9,-2,-20,-97,-270,-593,-8030,11.84,1007.89,47331
28,148,16396,9,-2,-22,-98,-270,-591,-8023,11.85,1007.91,47347
18,96,16348,9,-1,-20,-98,-270,-592,-8032,11.85,1007.89,47365
66,116,16408,9,-3,-22,-97,-272,-594,-8031,11.85,1007.9,47382
12,82,16346,9,-2,-21,-100,-271,-595,-8034,11.85,1007.89,47398
-20,104,16360,9,-2,-19,-97,-272,-591,-8023,11.85,1007.9,47416
-22,136,16344,8,-2,-21,-98,-270,-591,-8029,11.85,1007.92,47433
-4,140,16344,8,-4,-21,-96,-272,-596,-8026,11.86,1007.93,47451
-8,114,16394,7,-2,-21,-99,-271,-596,-8028,11.86,1007.88,47468
24,116,16394,9,-1,-22,-97,-270,-595,-7960,11.95,1007.84,50301
14,108,16366,9,-2,-20,-100,-273,-598,-7959,11.96,1007.87,50315
-2,94,16378,9,-3,-20,-97,-272,-599,-7961,11.96,1007.88,50331
-2,94,16352,9,-3,-20,-98,-272,-597,-7953,11.97,1007.91,50349
-12,128,16372,7,-3,-20,-98,-273,-592,-7961,11.97,1007.88,50366
22,122,16280,8,-2,-21,-98,-270,-600,-7954,11.98,1007.91,50383
-26,122,16368,7,-3,-21,-97,-274,-597,-7950,11.98,1007.85,50401
-10,130,16330,9,-2,-22,-97,-273,-596,-7952,11.99,1007.86,50418
14,112,16342,10,-1,-22,-97,-274,-593,-7950,11.99,1007.85,50436
-42,88,16428,9,-2,-21,-98,-270,-596,-7955,12,1007.87,50452
42,104,16348,10,-3,-21,-98,-273,-600,-7957,12,1007.89,50469
-12,162,16388,9,-3,-21,-97,-273,-596,-7961,12.01,1007.91,50487
-6,152,16380,10,-2,-20,-95,-273,-594,-7964,12.01,1007.89,50504
8,138,16414,8,-2,-21,-98,-270,-590,-7951,12.01,1007.91,50522
-10,110,16396,10,-4,-21,-97,-270,-597,-7954,12.01,1007.87,50539
12,80,16408,8,-2,-21,-96,-272,-596,-7951,12.02,1007.89,50556
-22,92,16394,8,-2,-21,-96,-274,-595,-7956,12.02,1007.87,50573
2,104,16350,10,-3,-22,-99,-270,-594,-7954,12.03,1007.89,50590
16,86,16362,8,-2,-19,-98,-272,-598,-7955,12.03,1007.89,50608
76,116,16344,8,-2,-23,-100,-270,-597,-7957,12.03,1007.9,50625
24,126,16428,8,-3,-20,-96,-270,-595,-7950,12.03,1007.9,50642
38,106,16402,8,-1,-22,-97,-270,-593,-7952,12.04,1007.92,50659
22,90,16366,9,-4,-21,-96,-271,-595,-7956,12.04,1007.86,50676
72,134,16314,9,-3,-20,-95,-270,-596,-7948,12.04,1007.88,50694
4,100,16362,9,-2,-20,-98,-273,-596,-7943,12.04,1007.9,50710
-34,108,16402,9,-1,-21,-98,-273,-595,-7944,12.05,1007.91,50727
-14,72,16366,9,-1,-21,-97,-270,-595,-7950,12.05,1007.88,50745
-14,152,16352,8,-3,-20,-96,-273,-594,-7959,12.06,1007.89,50762
12,110,16372,9,-2,-21,-98,-273,-598,-7948,12.06,1007.86,50780
20,104,16422,9,-2,-22,-101,-274,-591,-7950,12.06,1007.88,50797
22,108,16348,7,-1,-20,-98,-269,-595,-7940,12.06,1007.88,50813
32,136,16364,9,-3,-21,-97,-271,-598,-7953,12.06,1007.89,50831
0,92,16348,9,0,-21,-100,-271,-592,-7953,12.06,1007.89,50847
0,146,16370,9,-1,-20,-96,-273,-592,-7935,12.07,1007.9,50865
14,110,16358,9,-3,-20,-96,-271,-597,-7949,12.07,1007.88,50882
18,94,16396,9,-4,-20,-96,-268,-595,-7946,12.08,1007.9,50898
20,116,16400,10,-2,-21,-98,-269,-595,-7948,12.08,1007.9,50916
6,110,16358,9,-2,-20,-96,-272,-599,-7942,12.08,1007.91,50933
8,138,16278,10,-3,-20,-99,-275,-597,-7941,12.08,1007.89,50950
32,102,16316,9,-3,-19,-98,-273,-596,-7939,12.09,1007.9,50967
6,158,16376,9,-2,-20,-100,-270,-596,-7935,12.09,1007.9,50984
-16,88,16364,8,-3,-21,-96,-272,-597,-7947,12.09,1007.91,51002
28,112,16336,9,-2,-20,-100,-275,-595,-7946,12.09,1007.88,51019
-2,80,16336,9,-2,-21,-97,-271,-597,-7946,12.09,1007.89,51036
-58,98,16418,9,-3,-21,-96,-269,-592,-7945,12.09,1007.9,51053
22,114,16352,11,0,-21,-95,-271,-593,-7941,12.1,1007.91,51070
16,78,16374,9,-1,-21,-97,-274,-597,-7936,12.1,1007.88,51087
52,116,16318,8,-2,-20,-96,-270,-597,-7941,12.1,1007.89,51104
48,98,16340,8,-3,-20,-95,-271,-593,-7938,12.1,1007.9,51121
6,100,16400,9,-2,-21,-95,-272,-592,-7937,12.11,1007.92,51138
-12,96,16362,7,-2,-22,-96,-272,-596,-7934,12.11,1007.87,51155
12,102,16370,7,-2,-21,-92,-271,-590,-7865,12.2,1007.82,53989
-14,64,16402,9,-1,-20,-97,-271,-594,-7875,12.22,1007.86,54001
24,92,16336,8,-3,-20,-97,-272,-600,-7871,12.22,1007.82,54019
-18,88,16352,9,-3,-21,-98,-271,-596,-7863,12.23,1007.86,54036
6,150,16314,8,-2,-21,-95,-271,-595,-7871,12.23,1007.83,54052
20,146,16324,8,-1,-20,-98,-271,-594,-7865,12.24,1007.85,54070
50,96,16330,9,-1,-20,-100,-271,-601,-7866,12.24,1007.82,54087
34,150,16370,9,-2,-20,-96,-270,-596,-7858,12.25,1007.84,54104
0,116,16346,9,-2,-20,-98,-270,-597,-7857,12.25,1007.84,54121
-20,116,16312,8,-2,-21,-94,-270,-593,-7866,12.26,1007.86,54138
-18,98,16370,9,-3,-21,-99,-272,-597,-7864,12.26,1007.86,54156
-14,82,16342,9,-2,-20,-97,-271,-599,-7860,12.26,1007.88,54172
-18,126,16324,9,-3,-21,-100,-272,-597,-7861,12.26,1007.83,54191
30,122,16396,9,-3,-21,-95,-268,-595,-7872,12.27,1007.84,54207
-12,152,16388,8,-2,-20,-98,-270,-597,-7862,12.27,1007.84,54225
40,120,16332,10,-1,-22,-98,-272,-596,-7865,12.27,1007.85,54243
42,110,16350,9,-2,-21,-95,-273,-599,-7868,12.27,1007.82,54259
16,98,16356,7,-2,-21,-96,-273,-593,-7867,12.28,1007.83,54277
-4,80,16328,9,0,-21,-99,-270,-594,-7863,12.28,1007.83,54293
-18,82,16412,9,-3,-21,-98,-273,-595,-7861,12.29,1007.85,54310
-6,104,16398,8,-1,-22,-98,-273,-596,-7855,12.29,1007.81,54328
16,122,16384,9,-2,-20,-95,-274,-597,-7854,12.29,1007.82,54344
0,120,16380,9,-2,-21,-96,-270,-593,-7856,12.29,1007.85,54362
8,100,16340,9,-2,-20,-99,-273,-594,-7864,12.3,1007.87,54378
10,112,16274,8,-2,-21,-97,-272,-594,-7855,12.3,1007.84,54395
10,102,16348,9,-2,-20,-95,-273,-597,-7858,12.3,1007.85,54413
-64,106,16362,9,-1,-21,-96,-271,-597,-7856,12.3,1007.81,54430
48,148,16408,9,-2,-20,-96,-272,-594,-7859,12.31,1007.82,54448
-4,98,16318,9,-2,-20,-95,-271,-594,-7861,12.31,1007.82,54464
-18,110,16310,9,-2,-21,-95,-271,-597,-7865,12.31,1007.82,54481
14,76,16366,9,-2,-21,-99,-270,-596,-7858,12.31,1007.84,54499
-14,106,16398,9,-2,-22,-94,-271,-593,-7858,12.32,1007.85,54516
4,98,16428,8,-2,-20,-97,-272,-594,-7858,12.32,1007.84,54533
0,138,16392,7,0,-20,-97,-270,-599,-7861,12.32,1007.85,54549
-2,172,16334,8,-2,-20,-99,-271,-600,-7871,12.32,1007.8,54566
-30,78,16322,8,-1,-21,-97,-271,-596,-7853,12.32,1007.81,54584
4,128,16368,9,-2,-22,-97,-273,-595,-7859,12.32,1007.81,54600
-28,116,16334,9,-3,-21,-97,-272,-597,-7851,12.33,1007.82,54618
-26,114,16324,9,-1,-21,-101,-274,-599,-7856,12.33,1007.83,54635
0,122,16370,9,-1,-21,-96,-272,-597,-7858,12.33,1007.83,54652
20,124,16306,8,-2,-20,-96,-272,-592,-7851,12.33,1007.83,54670
8,116,16420,7,-2,-20,-95,-270,-598,-7859,12.33,1007.83,54686
-8,126,16318,9,-1,-21,-98,-269,-598,-7858,12.33,1007.83,54704
24,100,16370,9,-1,-21,-98,-271,-597,-7856,12.34,1007.85,54721
-6,110,16370,8,-2,-21,-96,-272,-598,-7848,12.34,1007.83,54737
-12,114,16410,10,-1,-20,-96,-274,-596,-7857,12.34,1007.84,54756
40,134,16358,8,-2,-20,-99,-271,-597,-7853,12.34,1007.82,54772
16,126,16362,9,-2,-22,-95,-272,-597,-7865,12.34,1007.82,54790
18,130,16354,10,-2,-20,-94,-272,-596,-7852,12.34,1007.81,54807
24,100,16322,8,-1,-21,-97,-272,-595,-7856,12.34,1007.81,54824
42,104,16374,9,-1,-21,-95,-269,-597,-7863,12.34,1007.82,54842
12,90,16340,8,-3,-21,-95,-272,-597,-7782,12.4,1007.77,57675
-10,62,16340,9,0,-20,-99,-273,-592,-7777,12.41,1007.8,57688
32,96,16396,9,-1,-22,-97,-269,-592,-7776,12.41,1007.78,57704
8,82,16366,6,-3,-21,-96,-271,-598,-7784,12.43,1007.82,57721
-36,88,16366,8,-3,-22,-98,-271,-596,-7780,12.43,1007.77,57738
0,132,16298,9,-3,-21,-95,-270,-596,-7776,12.44,1007.79,57755
-38,104,16368,8,-3,-21,-98,-271,-593,-7787,12.44,1007.79,57773
12,110,16348,9,-2,-20,-95,-271,-593,-7783,12.44,1007.81,57790
26,106,16338,9,-2,-20,-98,-270,-597,-7775,12.44,1007.77,57806
16,98,16350,9,-1,-21,-96,-274,-598,-7786,12.45,1007.78,57824
-46,138,16440,8,-2,-21,-95,-272,-593,-7783,12.45,1007.77,57841
-34,128,16326,9,-2,-21,-100,-270,-591,-7780,12.46,1007.8,57859
24,108,16324,9,-3,-21,-99,-273,-599,-7782,12.46,1007.81,57876
18,134,16322,9,-2,-22,-98,-272,-597,-7776,12.46,1007.82,57893
14,100,16354,9,-2,-23,-97,-271,-595,-7779,12.46,1007.8,57910
44,134,16350,8,-3,-21,-96,-270,-593,-7781,12.47,1007.81,57927
52,178,16374,9,-1,-20,-98,-268,-594,-7778,12.47,1007.76,57945
-12,124,16324,9,-2,-21,-98,-269,-596,-7779,12.48,1007.79,57962
-18,92,16370,9,-2,-21,-95,-272,-594,-7778,12.48,1007.81,57979
24,120,16318,9,-2,-21,-98,-267,-594,-7781,12.48,1007.82,57997
48,104,16306,10,-3,-21,-95,-270,-593,-7780,12.48,1007.78,58014
-16,132,16338,9,-1,-20,-96,-272,-594,-7772,12.48,1007.8,58032
-36,110,16398,9,-2,-22,-96,-272,-597,-7780,12.48,1007.77,58049
16,122,16348,8,-2,-22,-100,-272,-594,-7780,12.49,1007.79,58066
8,92,16374,9,-1,-21,-101,-272,-595,-7773,12.49,1007.79,58083
14,108,16316,9,-2,-21,-99,-270,-595,-7769,12.5,1007.81,58100
-6,146,16358,9,-2,-21,-96,-273,-595,-7773,12.5,1007.78,58118
-2,112,16376,8,-1,-23,-97,-273,-594,-7770,12.5,1007.8,58134
14,96,16350,10,0,-21,-97,-270,-592,-7774,12.5,1007.8,58151
-20,138,16318,10,-2,-21,-95,-270,-594,-7769,12.51,1007.81,58169
0,126,16356,9,-3,-21,-94,-271,-596,-7770,12.51,1007.78,58186
40,136,16310,9,-2,-21,-96,-275,-593,-7774,12.51,1007.8,58203
-30,84,16366,8,-1,-21,-97,-274,-593,-7765,12.51,1007.8,58220
0,80,16404,9,-3,-22,-99,-274,-593,-7778,12.52,1007.81,58236
-10,102,16320,9,-1,-21,-98,-271,-598,-7766,12.52,1007.78,58254
-10,158,16336,9,-2,-20,-98,-272,-593,-7768,12.52,1007.8,58271
16,118,16364,8,-2,-22,-96,-272,-592,-7770,12.52,1007.81,58289
-40,148,16350,9,-3,-21,-97,-270,-591,-7775,12.53,1007.82,58306
-26,116,16328,9,-3,-21,-97,-269,-596,-7771,12.53,1007.79,58323
14,114,16354,8,0,-21,-97,-266,-597,-7765,12.53,1007.8,58341
-18,114,16412,9,-2,-19,-96,-273,-595,-7775,12.53,1007.77,58358
-16,108,16320,7,-2,-21,-95,-273,-589,-7769,12.53,1007.78,58376
22,98,16306,10,-2,-21,-97,-271,-593,-7766,12.53,1007.76,58392
28,88,16298,9,-1,-21,-98,-272,-601,-7760,12.54,1007.77,58409
-6,106,16318,8,-3,-21,-95,-273,-593,-7760,12.54,1007.8,58427
36,98,16360,8,-2,-21,-98,-271,-591,-7767,12.54,1007.81,58443
-4,94,16374,9,-1,-22,-96,-271,-594,-7763,12.54,1007.79,58461
10,124,16338,9,-1,-21,-94,-268,-593,-7753,12.55,1007.81,58478
54,78,16376,9,-2,-21,-97,-273,-598,-7767,12.55,1007.79,58494
6,76,16342,9,-3,-20,-99,-272,-592,-7765,12.55,1007.8,58511
2,86,16366,9,-1,-21,-98,-272,-593,-7760,12.55,1007.79,58528
38,70,16322,9,-2,-21,-93,-269,-594,-7699,12.6,1007.75,61361
46,150,16320,8,-2,-22,-99,-271,-588,-7698,12.62,1007.79,61374
-8,96,16348,9,-2,-20,-96,-269,-597,-7696,12.62,1007.76,61390
2,114,16312,8,-3,-21,-95,-270,-591,-7704,12.63,1007.78,61408
-10,80,16248,8,-2,-22,-98,-274,-593,-7707,12.63,1007.77,61425
-20,94,16322,8,-1,-21,-96,-271,-595,-7701,12.64,1007.8,61442
-10,88,16316,9,-2,-20,-95,-268,-592,-7695,12.64,1007.71,61459
24,128,16316,8,-1,-23,-98,-271,-594,-7703,12.65,1007.74,61476
22,110,16382,8,-3,-21,-96,-270,-594,-7699,12.65,1007.77,61494
22,120,16336,8,-3,-21,-95,-271,-594,-7690,12.65,1007.78,61510
34,114,16302,10,-1,-20,-96,-270,-588,-7706,12.65,1007.76,61528
20,102,16376,8,0,-21,-98,-271,-590,-7708,12.66,1007.78,61545
-18,86,16320,9,-1,-21,-95,-269,-590,-7703,12.66,1007.77,61562
-6,110,16320,9,-2,-21,-97,-271,-596,-7707,12.66,1007.77,61579
42,104,16324,9,-3,-21,-96,-270,-593,-7697,12.66,1007.76,61596
38,100,16308,9,0,-22,-99,-270,-589,-7701,12.67,1007.78,61614
-2,104,16324,9,-1,-21,-100,-270,-591,-7708,12.67,1007.78,61631
30,72,16298,9,-2,-21,-99,-267,-595,-7697,12.67,1007.8,61647
30,130,16326,10,-1,-22,-97,-268,-591,-7696,12.67,1007.78,61665
0,122,16400,9,-1,-22,-97,-270,-590,-7700,12.68,1007.79,61682
-34,90,16318,9,-3,-22,-98,-269,-592,-7701,12.68,1007.75,61699
32,102,16330,9,-3,-21,-100,-269,-592,-7702,12.69,1007.77,61716
-2,86,16304,9,-1,-21,-96,-270,-595,-7695,12.69,1007.77,61733
56,108,16382,7,-1,-21,-97,-273,-592,-7697,12.69,1007.79,61751
-2,66,16278,9,-1,-21,-97,-269,-590,-7693,12.69,1007.77,61767
8,114,16364,9,-2,-21,-99,-269,-593,-7694,12.7,1007.78,61785
-2,112,16334,9,-3,-21,-95,-273,-599,-7702,12.7,1007.77,61801
16,98,16326,8,-3,-21,-96,-272,-593,-7692,12.7,1007.79,61818
16,98,16322,10,-1,-21,-95,-271,-590,-7689,12.7,1007.77,61836
24,114,16328,8,-1,-21,-94,-269,-592,-7696,12.7,1007.78,61853
66,86,16332,10,-2,-21,-97,-270,-598,-7692,12.7,1007.8,61870
44,130,16358,9,-1,-22,-97,-270,-594,-7688,12.71,1007.81,61887
34,78,16316,9,-2,-21,-98,-270,-592,-7694,12.71,1007.79,61904
12,150,16306,9,-3,-21,-95,-268,-591,-7692,12.71,1007.8,61921
-32,122,16338,10,-2,-21,-92,-271,-590,-7700,12.71,1007.78,61939
-14,140,16332,9,-2,-21,-97,-271,-598,-7694,12.72,1007.79,61957
0,144,16292,8,-2,-21,-96,-272,-594,-7688,12.72,1007.76,61973
-20,118,16334,9,-2,-20,-95,-269,-595,-7690,12.72,1007.77,61990
32,156,16318,9,-1,-22,-97,-270,-591,-7694,12.72,1007.78,62008
-14,90,16332,9,-1,-20,-98,-269,-595,-7695,12.72,1007.79,62025
20,114,16336,9,0,-22,-95,-269,-593,-7695,12.72,1007.78,62042
32,72,16340,8,-2,-21,-96,-271,-594,-7687,12.73,1007.8,62059
16,130,16348,9,-3,-21,-97,-269,-593,-7694,12.73,1007.77,62075
4,84,16364,9,0,-21,-98,-272,-593,-7687,12.73,1007.78,62092
4,138,16362,9,0,-21,-96,-268,-595,-7690,12.73,1007.76,62109
26,140,16326,10,-2,-21,-94,-268,-597,-7692,12.74,1007.78,62127
6,84,16294,9,-2,-21,-95,-271,-589,-7683,12.74,1007.78,62143
22,100,16330,8,-1,-21,-97,-268,-592,-7686,12.74,1007.79,62160
-2,104,16358,8,-2,-21,-96,-269,-589,-7685,12.74,1007.76,62177
-6,126,16312,9,-1,-21,-97,-271,-597,-7683,12.74,1007.76,62194
48,110,16328,9,-2,-22,-94,-270,-589,-7677,12.74,1007.78,62212
56,114,16298,9,0,-21,-101,-270,-598,-7631,12.82,1007.7,65045
32,102,16252,9,-1,-21,-98,-267,-589,-7632,12.84,1007.75,65057
-14,94,16350,8,-2,-20,-97,-270,-590,-7633,12.84,1007.73,65075
26,94,16338,8,-1,-21,-97,-271,-593,-7626,12.85,1007.74,65092
38,120,16322,9,-2,-21,-99,-270,-592,-7626,12.85,1007.71,65110
6,124,16314,9,-3,-22,-95,-270,-596,-7621,12.86,1007.74,65126
44,124,16274,10,-3,-19,-94,-271,-590,-7621,12.86,1007.72,65143
32,104,16326,9,-1,-21,-96,-271,-591,-7625,12.86,1007.74,65161
4,124,16318,7,-2,-20,-99,-273,-593,-7622,12.86,1007.73,65177
6,118,16396,8,-3,-22,-95,-270,-597,-7624,12.87,1007.75,65195
2,130,16314,8,-3,-21,-98,-270,-596,-7626,12.87,1007.72,65211
-46,132,16292,7,0,-21,-98,-268,-591,-7622,12.88,1007.74,65228
26,90,16374,9,0,-22,-94,-271,-590,-7624,12.88,1007.73,65245
4,64,16278,8,-1,-21,-95,-270,-592,-7622,12.89,1007.74,65262
14,92,16442,9,-2,-20,-95,-270,-592,-7627,12.89,1007.7,65278
-4,92,16298,8,-1,-22,-98,-270,-589,-7630,12.89,1007.72,65296
-12,118,16358,9,-1,-20,-96,-270,-590,-7620,12.89,1007.72,65313
-4,148,16366,9,-1,-20,-98,-272,-595,-7619,12.9,1007.74,65330
22,94,16336,8,-3,-21,-98,-275,-590,-7613,12.9,1007.72,65347
78,162,16276,9,-2,-22,-99,-270,-589,-7625,12.9,1007.73,65364
30,78,16318,8,0,-20,-99,-269,-591,-7620,12.9,1007.71,65381
-60,140,16336,8,-2,-21,-94,-269,-591,-7625,12.91,1007.72,65398
8,122,16340,7,-2,-21,-97,-273,-594,-7626,12.91,1007.72,65415
12,100,16360,9,-2,-22,-96,-272,-591,-7624,12.91,1007.73,65432
32,122,16298,8,0,-21,-95,-270,-589,-7628,12.91,1007.75,65449
58,100,16354,9,-1,-20,-97,-271,-592,-7623,12.92,1007.76,65466
36,166,16340,9,-1,-21,-99,-270,-600,-7620,12.92,1007.71,65483
2,146,16310,8,-2,-21,-97,-270,-593,-7623,12.92,1007.73,65501
-2,130,16300,9,-3,-22,-95,-270,-590,-7622,12.92,1007.73,65517
6,102,16256,8,-2,-21,-98,-268,-592,-7620,12.93,1007.74,65534
8,128,16348,9,-3,-21,-96,-269,-593,-7622,12.93,1007.74,65551
-22,116,16406,10,-2,-21,-96,-271,-591,-7624,12.93,1007.75,65569
-36,90,16330,8,-2,-20,-96,-271,-595,-7623,12.93,1007.73,65586
0,96,16312,8,-3,-20,-98,-268,-591,-7623,12.93,1007.73,65603
4,146,16308,10,-2,-21,-98,-272,-596,-7621,12.93,1007.74,65619
-4,132,16356,9,-2,-20,-96,-271,-596,-7614,12.94,1007.76,65637
20,86,16274,8,1,-21,-96,-272,-594,-7616,12.94,1007.71,65653
14,110,16312,10,-2,-20,-98,-272,-592,-7621,12.94,1007.73,65671
4,54,16280,9,-1,-20,-97,-268,-591,-7613,12.94,1007.73,65688
-12,104,16386,8,-1,-20,-97,-271,-591,-7610,12.95,1007.74,65705
-6,72,16302,8,-4,-20,-96,-272,-595,-7610,12.95,1007.74,65722
36,88,16294,8,-1,-21,-95,-270,-596,-7609,12.95,1007.75,65739
-60,94,16296,9,0,-22,-96,-269,-589,-7603,12.95,1007.73,65756
-26,122,16262,8,-1,-23,-96,-272,-589,-7621,12.95,1007.73,65773
26,120,16288,9,-2,-21,-97,-271,-596,-7613,12.95,1007.74,65790
-6,136,16342,9,-2,-21,-99,-266,-593,-7613,12.95,1007.74,65808
-8,80,16310,9,-2,-21,-96,-272,-591,-7614,12.95,1007.71,65824
58,104,16356,8,-2,-22,-99,-268,-591,-7611,12.96,1007.73,65842
2,102,16294,9,-1,-20,-97,-271,-593,-7618,12.96,1007.73,65859
16,90,16318,9,-1,-22,-97,-272,-592,-7610,12.96,1007.73,65875
54,122,16324,7,-2,-20,-98,-270,-592,-7607,12.96,1007.72,65893
-32,96,16314,9,-2,-21,-96,-271,-590,-7551,13.02,1007.74,68726
12,88,16282,8,-1,-21,-93,-270,-589,-7554,13.04,1007.77,68739
54,134,16332,9,0,-22,-97,-271,-596,-7553,13.04,1007.74,68756
-22,106,16326,9,-2,-22,-99,-269,-592,-7550,13.05,1007.78,68773
-12,136,16326,9,-2,-21,-94,-273,-594,-7547,13.05,1007.74,68791
18,140,16278,8,-2,-21,-96,-269,-587,-7552,13.06,1007.75,68807
24,100,16280,8,-2,-22,-99,-271,-593,-7550,13.06,1007.76,68825
8,80,16308,8,-1,-22,-98,-270,-596,-7543,13.06,1007.78,68841
40,86,16246,8,-2,-21,-96,-270,-594,-7545,13.06,1007.72,68858
34,134,16302,9,-1,-20,-94,-273,-592,-7538,13.07,1007.75,68876
-30,74,16314,9,-2,-21,-96,-267,-593,-7537,13.07,1007.75,68892
2,102,16348,8,-1,-21,-99,-270,-588,-7552,13.08,1007.76,68910
18,140,16290,9,-1,-22,-97,-272,-593,-7545,13.08,1007.74,68927
6,98,16322,7,-1,-20,-98,-270,-593,-7551,13.09,1007.76,68943
-10,126,16318,9,0,-21,-96,-268,-590,-7552,13.09,1007.77,68961
22,116,16336,8,0,-21,-96,-269,-589,-7549,13.09,1007.79,68977
-24,110,16254,9,-1,-20,-95,-270,-592,-7538,13.09,1007.76,68995
6,128,16282,8,-2,-21,-97,-271,-597,-7550,13.1,1007.77,69012
-4,146,16290,9,-1,-21,-93,-269,-589,-7546,13.1,1007.76,69028
-14,80,16280,8,0,-21,-99,-268,-591,-7545,13.1,1007.77,69046
-8,120,16346,9,-1,-20,-97,-270,-589,-7544,13.1,1007.73,69063
48,104,16342,9,-2,-20,-98,-269,-595,-7546,13.11,1007.75,69081
26,94,16288,8,-1,-21,-99,-269,-588,-7548,13.11,1007.74,69097
-22,118,16392,9,-2,-20,-99,-270,-589,-7538,13.12,1007.76,69114
-38,126,16268,9,-1,-21,-98,-271,-592,-7544,13.12,1007.76,69132
6,104,16392,8,-1,-21,-97,-269,-594,-7544,13.12,1007.77,69149
-8,112,16304,10,-1,-21,-96,-271,-593,-7535,13.12,1007.74,69167
-20,114,16284,9,-2,-21,-97,-269,-590,-7544,13.13,1007.76,69184
2,136,16380,9,-1,-21,-96,-270,-592,-7540,13.13,1007.75,69200
42,96,16284,8,-3,-21,-96,-270,-594,-7535,13.13,1007.75,69218
50,126,16302,9,0,-20,-100,-272,-592,-7540,13.13,1007.73,69234
10,110,16338,10,-2,-22,-94,-271,-593,-7541,13.13,1007.74,69252
30,220,16308,9,-2,-20,-95,-269,-590,-7538,13.13,1007.77,69269
10,56,16308,9,-2,-21,-98,-268,-593,-7545,13.14,1007.78,69286
6,116,16306,9,-2,-22,-97,-270,-599,-7542,13.14,1007.76,69303
-30,124,16246,8,-2,-23,-94,-271,-595,-7535,13.14,1007.76,69320
40,78,16312,9,-2,-20,-96,-270,-593,-7536,13.14,1007.73,69338
8,98,16322,8,-2,-21,-97,-270,-592,-7540,13.15,1007.75,69354
-34,118,16270,8,-2,-21,-96,-268,-592,-7535,13.15,1007.76,69371
14,116,16324,8,0,-22,-96,-269,-595,-7537,13.15,1007.77,69388
-26,144,16270,9,-1,-22,-96,-270,-590,-7535,13.15,1007.75,69405
8,66,16280,8,-1,-20,-98,-269,-589,-7533,13.16,1007.75,69423
4,94,16306,8,-1,-22,-97,-269,-592,-7541,13.16,1007.75,69439
-44,114,16328,8,-2,-22,-96,-271,-596,-7542,13.16,1007.77,69456
24,156,16318,9,-2,-21,-96,-269,-591,-7534,13.16,1007.74,69474
-38,112,16334,9,-3,-21,-98,-269,-594,-7535,13.17,1007.74,69491
2,130,16298,9,-1,-20,-99,-269,-587,-7539,13.17,1007.74,69508
-10,112,16310,9,-3,-21,-96,-269,-592,-7535,13.17,1007.75,69525
26,124,16320,9,0,-20,-97,-269,-595,-7533,13.17,1007.77,69542
36,72,16326,9,-1,-22,-98,-269,-592,-7540,13.17,1007.78,69559
0,106,16306,8,-2,-21,-99,-270,-589,-7540,13.17,1007.76,69576
-4,104,16276,9,-3,-20,-94,-266,-591,-7472,13.27,1007.64,72410
18,84,16254,9,-2,-22,-98,-267,-591,-7472,13.28,1007.67,72422
8,98,16252,10,-2,-22,-100,-271,-588,-7471,13.28,1007.64,72439
44,138,16348,9,-2,-22,-97,-271,-591,-7471,13.29,1007.66,72457
14,138,16258,9,-2,-21,-96,-271,-591,-7466,13.29,1007.66,72473
8,106,16264,9,0,-22,-97,-268,-591,-7473,13.3,1007.69,72491
48,122,16288,8,-1,-21,-100,-267,-590,-7472,13.3,1007.65,72508
-24,120,16270,8,-2,-22,-97,-269,-594,-7470,13.31,1007.66,72525
-22,84,16266,9,-2,-21,-97,-271,-592,-7470,13.31,1007.65,72542
56,92,16292,9,-2,-21,-94,-271,-592,-7474,13.32,1007.68,72559
26,110,16366,9,-1,-21,-93,-267,-587,-7468,13.32,1007.65,72577
40,104,16262,9,0,-20,-97,-266,-589,-7472,13.32,1007.67,72593
42,122,16260,9,-1,-20,-97,-270,-593,-7467,13.32,1007.65,72610
50,114,16294,9,-1,-20,-96,-269,-593,-7466,13.33,1007.67,72628
-4,90,16336,10,-1,-22,-97,-267,-586,-7467,13.33,1007.66,72644
20,130,16314,9,-2,-21,-94,-267,-589,-7467,13.33,1007.67,72662
32,140,16372,9,-1,-23,-97,-267,-591,-7461,13.33,1007.66,72679
16,152,16336,9,0,-21,-97,-269,-593,-7467,13.34,1007.68,72695
-16,90,16292,8,-2,-20,-94,-267,-590,-7470,13.34,1007.64,72713
-24,120,16332,9,-1,-22,-98,-269,-591,-7470,13.35,1007.66,72730
6,126,16336,9,-2,-22,-97,-270,-590,-7463,13.35,1007.65,72748
-2,132,16332,8,-1,-21,-98,-271,-596,-7460,13.35,1007.66,72764
-48,104,16310,8,-1,-21,-95,-267,-592,-7463,13.35,1007.65,72781
-6,74,16266,9,-3,-21,-98,-268,-588,-7467,13.35,1007.66,72799
-32,134,16310,9,-1,-21,-94,-267,-589,-7456,13.35,1007.62,72816
28,104,16274,9,-2,-20,-96,-268,-592,-7465,13.36,1007.64,72834
42,106,16276,8,-2,-21,-96,-267,-591,-7461,13.36,1007.65,72850
16,110,16332,9,-1,-23,-99,-271,-587,-7464,13.36,1007.66,72867
38,82,16324,8,-2,-20,-96,-268,-589,-7458,13.36,1007.66,72885
2,154,16348,9,-1,-21,-99,-269,-590,-7458,13.37,1007.68,72901
2,148,16262,9,-2,-22,-98,-267,-590,-7463,13.37,1007.64,72919
-16,100,16286,8,-1,-21,-96,-270,-590,-7461,13.37,1007.64,72936
8,140,16260,9,0,-22,-98,-271,-588,-7463,13.37,1007.62,72952
14,130,16278,8,-2,-22,-97,-271,-591,-7457,13.38,1007.64,72970
38,84,16302,8,-1,-21,-97,-272,-594,-7470,13.38,1007.64,72986
-6,100,16266,8,-1,-21,-98,-270,-590,-7463,13.38,1007.66,73004
-14,136,16356,10,-1,-21,-96,-271,-590,-7462,13.38,1007.66,73021
20,118,16294,9,0,-21,-95,-269,-589,-7457,13.39,1007.67,73038
-16,72,16302,8,-2,-21,-95,-267,-596,-7461,13.39,1007.63,73056
24,126,16294,9,-2,-21,-99,-271,-593,-7460,13.39,1007.63,73072
0,80,16242,8,-1,-21,-97,-267,-590,-7467,13.39,1007.62,73090
-20,142,16320,8,-2,-20,-97,-268,-590,-7453,13.39,1007.64,73107
30,138,16284,8,-1,-21,-98,-269,-591,-7458,13.39,1007.67,73123
10,74,16288,9,-2,-22,-98,-271,-594,-7456,13.4,1007.68,73141
-58,82,16266,9,-1,-20,-96,-269,-591,-7461,13.4,1007.63,73158
4,88,16290,8,-2,-21,-98,-271,-592,-7459,13.4,1007.64,73175
-18,136,16284,10,-2,-21,-99,-267,-589,-7461,13.4,1007.65,73192
40,150,16248,9,-3,-21,-95,-270,-593,-7456,13.4,1007.65,73209
54,120,16240,8,-1,-21,-96,-269,-592,-7462,13.4,1007.64,73227
12,114,16266,9,1,-21,-97,-268,-592,-7456,13.41,1007.65,73243
-24,82,16300,8,-1,-20,-99,-267,-591,-7459,13.41,1007.65,73261
44,110,16230,8,-3,-21,-96,-265,-585,-7397,13.47,1007.64,76094
-38,102,16232,9,-2,-21,-94,-267,-587,-7400,13.48,1007.67,76107
22,68,16284,9,-1,-21,-96,-270,-592,-7399,13.48,1007.62,76124
-30,116,16328,8,-1,-21,-97,-267,-591,-7391,13.49,1007.65,76141
40,116,16306,8,-2,-21,-96,-272,-589,-7392,13.49,1007.61,76158
30,104,16356,9,-1,-22,-99,-271,-580,-7398,13.5,1007.63,76176
-10,66,16274,8,-2,-21,-98,-270,-589,-7398,13.5,1007.61,76192
10,96,16242,9,0,-22,-98,-266,-589,-7390,13.51,1007.63,76210
28,70,16234,9,-1,-21,-96,-268,-589,-7396,13.51,1007.63,76226
22,116,16252,8,-2,-20,-94,-268,-589,-7400,13.51,1007.65,76243
2,104,16294,9,-1,-21,-95,-269,-589,-7392,13.51,1007.62,76260
4,102,16292,9,-2,-21,-98,-269,-590,-7397,13.52,1007.63,76277
28,96,16314,9,-1,-21,-95,-270,-589,-7389,13.52,1007.63,76294
70,90,16318,9,0,-21,-98,-267,-591,-7401,13.53,1007.65,76311
44,94,16320,8,0,-21,-100,-268,-587,-7402,13.53,1007.62,76327
40,106,16296,7,1,-21,-98,-269,-587,-7399,13.53,1007.64,76345
52,56,16268,8,-2,-22,-96,-267,-591,-7398,13.53,1007.61,76361
-8,120,16322,9,-2,-21,-96,-269,-591,-7401,13.54,1007.62,76379
10,120,16300,9,-1,-21,-97,-267,-587,-7390,13.54,1007.63,76396
-4,56,16246,10,-1,-21,-98,-268,-590,-7391,13.54,1007.64,76413
24,116,16228,8,-2,-22,-98,-267,-589,-7391,13.54,1007.65,76430
-6,118,16222,8,-1,-21,-97,-269,-591,-7389,13.55,1007.66,76447
-48,136,16242,9,-2,-20,-98,-271,-588,-7395,13.55,1007.66,76465
54,108,16278,10,-1,-20,-96,-269,-588,-7401,13.55,1007.66,76482
28,126,16300,8,-1,-21,-96,-267,-587,-7398,13.55,1007.64,76499
-20,110,16274,9,-1,-22,-96,-268,-591,-7396,13.55,1007.65,76517
12,104,16272,8,-1,-21,-95,-268,-590,-7394,13.55,1007.62,76534
12,140,16296,10,-2,-21,-99,-267,-585,-7392,13.56,1007.63,76552
-20,100,16276,9,-1,-20,-98,-269,-587,-7386,13.56,1007.64,76569
2,104,16272,8,-1,-20,-98,-267,-588,-7381,13.56,1007.65,76585
38,92,16292,9,-2,-21,-99,-270,-593,-7395,13.56,1007.65,76603
2,116,16298,10,-2,-20,-97,-270,-587,-7389,13.57,1007.67,76619
18,100,16234,9,-2,-22,-95,-266,-586,-7398,13.57,1007.63,76637
52,104,16224,9,0,-21,-94,-267,-589,-7393,13.57,1007.64,76654
32,130,16290,10,-1,-19,-95,-267,-591,-7389,13.57,1007.62,76672
24,110,16296,9,-2,-21,-96,-272,-591,-7389,13.57,1007.63,76688
10,78,16324,8,-2,-21,-97,-265,-585,-7386,13.57,1007.64,76705
34,86,16282,9,-1,-21,-97,-266,-586,-7391,13.58,1007.66,76722
12,92,16220,8,-1,-20,-98,-270,-590,-7390,13.58,1007.64,76739
32,84,16354,8,0,-21,-95,-267,-591,-7390,13.58,1007.64,76755
-28,102,16274,10,-3,-21,-97,-268,-590,-7396,13.58,1007.61,76773
-6,130,16284,9,0,-20,-96,-267,-588,-7391,13.59,1007.63,76790
-14,110,16306,8,-4,-22,-94,-268,-588,-7392,13.59,1007.64,76808
30,134,16300,8,-1,-21,-97,-271,-589,-7385,13.59,1007.64,76825
82,150,16266,9,-1,-23,-95,-269,-587,-7390,13.59,1007.65,76841
56,124,16280,9,-1,-22,-97,-267,-589,-7386,13.59,1007.66,76859
-10,88,16284,7,0,-22,-97,-269,-590,-7380,13.59,1007.65,76876
0,104,16292,9,-1,-20,-96,-267,-590,-7389,13.59,1007.66,76893
-24,132,16332,9,-2,-22,-95,-271,-591,-7388,13.59,1007.61,76910
0,88,16318,8,-3,-20,-97,-269,-590,-7383,13.6,1007.62,76926
10,136,16204,9,0,-21,-95,-268,-587,-7396,13.6,1007.62,76944
10,100,16254,8,-2,-20,-96,-268,-588,-7327,13.66,1007.64,79777
-36,126,16332,8,-2,-20,-96,-268,-588,-7326,13.67,1007.67,79791
-12,108,16232,9,-2,-21,-95,-269,-590,-7329,13.67,1007.64,79808
-4,88,16220,9,-2,-21,-97,-269,-592,-7327,13.69,1007.67,79824
34,92,16254,7,0,-20,-96,-267,-589,-7325,13.69,1007.64,79842
-4,150,16270,10,-1,-20,-97,-267,-589,-7323,13.69,1007.66,79859
-16,146,16286,9,0,-21,-95,-270,-593,-7326,13.69,1007.63,79876
24,144,16312,9,-1,-21,-99,-267,-592,-7336,13.7,1007.66,79893
12,82,16262,8,-1,-21,-97,-269,-592,-7324,13.7,1007.65,79910
-8,86,16240,8,-1,-20,-99,-266,-591,-7327,13.71,1007.66,79927
30,88,16294,10,-2,-20,-94,-267,-589,-7331,13.71,1007.67,79944
24,110,16268,9,-2,-22,-96,-267,-591,-7317,13.72,1007.69,79962
38,122,16316,9,-1,-21,-94,-269,-590,-7327,13.72,1007.65,79978
30,78,16250,9,-1,-20,-95,-271,-588,-7337,13.72,1007.67,79995
12,92,16280,9,0,-20,-98,-268,-587,-7330,13.72,1007.65,80012
0,108,16248,9,-1,-21,-95,-268,-588,-7334,13.73,1007.66,80029
-6,130,16324,9,-2,-20,-98,-267,-590,-7322,13.73,1007.68,80046
24,96,16304,9,-1,-21,-100,-268,-590,-7329,13.74,1007.69,80063
-6,106,16306,9,-2,-20,-94,-269,-586,-7321,13.74,1007.67,80080
6,96,16294,8,-1,-19,-96,-266,-589,-7322,13.74,1007.69,80097
48,76,16204,8,-1,-20,-97,-267,-591,-7325,13.74,1007.68,80114
22,76,16250,8,-2,-21,-97,-267,-592,-7327,13.75,1007.69,80131
-6,102,16276,9,-1,-19,-95,-267,-586,-7323,13.75,1007.66,80148
2,110,16286,9,-1,-22,-98,-267,-590,-7323,13.75,1007.67,80164
34,138,16260,8,-1,-22,-97,-268,-587,-7323,13.75,1007.68,80182
-36,108,16292,9,-1,-21,-98,-268,-592,-7332,13.76,1007.69,80199
16,104,16258,9,-2,-20,-98,-266,-591,-7329,13.76,1007.7,80217
18,110,16306,9,-1,-20,-97,-267,-586,-7328,13.76,1007.7,80234
28,136,16292,9,0,-20,-95,-268,-588,-7323,13.76,1007.67,80250
-52,128,16308,8,-2,-23,-98,-265,-592,-7323,13.77,1007.69,80268
-8,94,16240,9,-2,-20,-94,-270,-587,-7319,13.77,1007.7,80285
30,56,16316,9,-1,-21,-98,-267,-588,-7319,13.77,1007.71,80302
30,118,16274,10,0,-21,-100,-268,-589,-7320,13.77,1007.69,80319
18,148,16254,10,-1,-21,-97,-271,-589,-7321,13.78,1007.7,80336
24,86,16286,8,-2,-21,-97,-270,-591,-7319,13.78,1007.68,80354
4,154,16318,8,-1,-22,-95,-268,-591,-7318,13.78,1007.69,80370
-18,84,16228,9,-1,-21,-95,-270,-587,-7311,13.78,1007.67,80388
14,116,16250,9,-1,-22,-97,-266,-589,-7314,13.78,1007.68,80405
-40,74,16318,8,0,-21,-95,-271,-593,-7316,13.78,1007.68,80421
-12,104,16322,9,-2,-21,-96,-267,-590,-7316,13.79,1007.69,80439
12,158,16244,9,-1,-20,-98,-268,-589,-7307,13.79,1007.66,80456
14,106,16324,9,-2,-22,-94,-269,-586,-7317,13.79,1007.68,80474
48,90,16266,8,0,-20,-97,-272,-588,-7312,13.79,1007.68,80490
2,134,16260,9,-1,-20,-95,-267,-590,-7317,13.8,1007.69,80507
-16,122,16226,9,0,-21,-99,-271,-592,-7310,13.8,1007.67,80524
-10,86,16320,9,0,-20,-95,-266,-590,-7316,13.8,1007.68,80541
12,110,16248,9,-4,-21,-96,-267,-588,-7308,13.8,1007.69,80559
-6,84,16266,9,-2,-22,-95,-269,-593,-7314,13.81,1007.7,80575
30,96,16314,9,-1,-20,-98,-267,-591,-7313,13.81,1007.69,80592
-4,114,16284,10,-1,-20,-96,-268,-591,-7317,13.81,1007.71,80610
28,100,16254,8,-2,-21,-97,-270,-589,-7305,13.81,1007.73,80626
54,136,16284,8,-1,-22,-100,-270,-590,-7263,13.86,1007.72,83460
42,142,16228,9,-1,-22,-98,-271,-596,-7263,13.88,1007.76,83473
24,142,16240,9,-1,-22,-95,-270,-593,-7262,13.88,1007.71,83490
20,46,16258,9,0,-21,-97,-272,-593,-7257,13.89,1007.74,83507
50,94,16316,9,0,-22,-94,-271,-586,-7256,13.89,1007.73,83523
24,86,16322,9,-2,-21,-95,-271,-592,-7257,13.9,1007.75,83540
-10,104,16230,9,0,-21,-96,-269,-598,-7262,13.9,1007.75,83558
-10,82,16208,8,-2,-21,-96,-271,-591,-7250,13.91,1007.76,83574
18,74,16226,8,-1,-21,-96,-271,-593,-7248,13.91,1007.73,83592
2,132,16236,9,-2,-20,-98,-269,-590,-7256,13.92,1007.75,83608
8,90,16268,8,-1,-22,-96,-269,-592,-7261,13.92,1007.72,83625
2,88,16270,7,-2,-22,-98,-272,-594,-7252,13.92,1007.74,83642
14,128,16266,9,-1,-21,-98,-273,-591,-7253,13.92,1007.74,83659
20,128,16346,8,-2,-21,-96,-270,-594,-7256,13.93,1007.75,83676
22,92,16296,9,-1,-20,-99,-272,-593,-7254,13.93,1007.74,83693
46,72,16264,9,-1,-20,-96,-271,-594,-7252,13.93,1007.75,83709
36,124,16334,8,0,-21,-95,-272,-595,-7259,13.93,1007.74,83727
-2,100,16238,8,-1,-20,-97,-270,-594,-7255,13.94,1007.75,83744
-2,112,16256,9,-1,-22,-97,-272,-591,-7254,13.94,1007.74,83761
-12,128,16246,9,-1,-21,-99,-268,-593,-7258,13.94,1007.76,83778
68,110,16252,9,0,-21,-95,-270,-593,-7256,13.94,1007.75,83795
16,118,16192,9,0,-22,-98,-272,-596,-7254,13.95,1007.76,83812
38,112,16254,9,-1,-20,-98,-269,-592,-7250,13.95,1007.73,83829
-34,80,16260,10,-2,-21,-96,-270,-592,-7264,13.95,1007.74,83847
-30,126,16278,9,-3,-21,-96,-270,-595,-7263,13.95,1007.74,83864
-18,106,16258,9,-1,-22,-95,-269,-594,-7252,13.96,1007.75,83881
50,100,16228,9,0,-21,-94,-271,-585,-7249,13.96,1007.73,83899
-2,64,16286,7,-1,-21,-94,-270,-589,-7251,13.96,1007.73,83915
18,98,16280,9,-3,-20,-97,-269,-591,-7256,13.96,1007.71,83933
-16,98,16296,8,-1,-21,-96,-271,-595,-7257,13.96,1007.73,83949
48,108,16296,8,0,-21,-95,-270,-595,-7248,13.96,1007.73,83966
0,52,16254,9,-2,-22,-96,-269,-587,-7244,13.97,1007.75,83983
2,82,16162,9,-2,-21,-97,-271,-592,-7258,13.97,1007.73,83999
24,110,16216,9,-2,-22,-98,-271,-595,-7255,13.98,1007.75,84017
-18,130,16318,9,-1,-21,-95,-272,-593,-7252,13.98,1007.75,84034
-28,106,16270,9,0,-20,-93,-271,-589,-7256,13.98,1007.76,84051
6,82,16230,9,-3,-21,-97,-270,-593,-7248,13.98,1007.71,84068
-8,98,16278,10,-2,-21,-95,-268,-592,-7246,13.98,1007.72,84085
14,90,16326,8,-2,-20,-98,-270,-594,-7252,13.98,1007.71,84103
24,112,16214,8,-1,-20,-94,-270,-591,-7247,13.99,1007.73,84119
10,114,16304,9,-1,-22,-96,-269,-589,-7253,13.99,1007.76,84136
-10,94,16274,9,-3,-22,-95,-269,-591,-7244,13.99,1007.76,84154
-18,138,16286,9,0,-21,-99,-271,-591,-7252,13.99,1007.72,84171
-24,150,16236,8,-1,-21,-96,-267,-593,-7248,14,1007.73,84189
30,102,16254,9,-1,-21,-95,-269,-593,-7241,14,1007.71,84205
18,124,16322,8,-2,-22,-95,-268,-592,-7246,14,1007.71,84222
20,112,16260,9,0,-21,-98,-269,-590,-7250,14,1007.7,84240
14,74,16296,9,-1,-22,-96,-272,-595,-7254,14,1007.71,84256
30,130,16252,10,-2,-21,-95,-270,-596,-7246,14,1007.72,84274
26,114,16238,8,0,-21,-98,-270,-591,-7250,14.01,1007.73,84291
48,138,16264,9,-1,-20,-96,-270,-591,-7246,14.01,1007.71,84307
38,86,16276,7,-2,-21,-98,-269,-591,-7185,14.08,1007.63,87141
-16,74,16306,8,-1,-20,-98,-270,-590,-7190,14.11,1007.69,87154
30,118,16264,9,0,-20,-98,-269,-587,-7188,14.11,1007.69,87171
34,124,16236,10,1,-20,-98,-269,-586,-7192,14.11,1007.7,87188
14,124,16222,10,-2,-21,-95,-268,-589,-7178,14.11,1007.68,87205
34,134,16208,10,0,-22,-95,-269,-589,-7182,14.12,1007.7,87223
-6,62,16234,8,-2,-22,-97,-267,-588,-7190,14.12,1007.68,87239
-6,84,16272,9,-3,-19,-96,-270,-587,-7190,14.13,1007.7,87257
-12,112,16278,8,-3,-20,-97,-267,-589,-7193,14.13,1007.66,87274
34,132,16226,8,0,-22,-95,-268,-588,-7191,14.14,1007.69,87290
-6,90,16260,9,-1,-21,-96,-269,-591,-7185,14.14,1007.67,87308
-8,86,16276,10,-1,-22,-96,-267,-590,-7186,14.14,1007.68,87324
-2,120,16176,8,-1,-22,-96,-269,-585,-7191,14.14,1007.64,87342
20,78,16240,9,-1,-20,-94,-268,-591,-7191,14.15,1007.66,87359
-28,124,16252,8,-1,-21,-100,-268,-594,-7189,14.15,1007.66,87376
32,120,16256,8,0,-21,-95,-269,-589,-7191,14.15,1007.67,87393
16,146,16216,9,0,-21,-96,-270,-588,-7185,14.15,1007.66,87410
30,86,16310,8,-1,-22,-97,-266,-589,-7184,14.16,1007.68,87427
20,122,16300,8,-1,-22,-100,-269,-584,-7177,14.16,1007.67,87444
22,110,16196,9,-3,-21,-97,-270,-591,-7185,14.17,1007.68,87461
-2,134,16300,8,0,-22,-95,-270,-590,-7183,14.17,1007.68,87479
-24,124,16196,9,-1,-20,-95,-270,-589,-7184,14.17,1007.7,87496
40,140,16308,9,-2,-21,-98,-268,-588,-7187,14.17,1007.69,87514
8,122,16220,9,-1,-22,-98,-268,-591,-7184,14.18,1007.69,87530
2,162,16240,9,-1,-21,-98,-267,-593,-7185,14.18,1007.63,87547
24,110,16238,9,0,-20,-93,-266,-591,-7190,14.18,1007.64,87564
18,82,16222,9,-2,-20,-100,-267,-587,-7180,14.18,1007.68,87581
-8,114,16252,9,-2,-21,-97,-270,-591,-7178,14.19,1007.7,87599
-16,94,16178,8,0,-21,-97,-269,-591,-7177,14.19,1007.66,87615
10,76,16206,9,-2,-21,-95,-271,-592,-7185,14.19,1007.68,87632
14,88,16254,8,-1,-23,-98,-270,-588,-7187,14.19,1007.68,87649
-2,98,16242,8,-1,-20,-97,-269,-586,-7180,14.19,1007.68,87666
22,126,16246,9,-1,-23,-98,-267,-592,-7180,14.19,1007.65,87683
8,122,16212,8,-2,-20,-97,-269,-591,-7184,14.2,1007.66,87700
28,78,16302,9,-1,-21,-101,-269,-584,-7185,14.2,1007.7,87717
22,110,16264,8,0,-22,-98,-270,-588,-7185,14.2,1007.7,87734
28,82,16300,9,-2,-21,-98,-268,-589,-7185,14.2,1007.68,87751
4,152,16204,9,-1,-21,-95,-267,-592,-7181,14.21,1007.7,87768
2,86,16234,9,-1,-20,-99,-269,-590,-7177,14.21,1007.67,87784
14,120,16256,8,-2,-22,-97,-268,-587,-7169,14.21,1007.67,87801
0,118,16256,9,0,-22,-98,-269,-589,-7184,14.21,1007.67,87818
4,144,16234,10,-2,-21,-96,-268,-592,-7174,14.22,1007.68,87835
22,92,16290,7,-2,-21,-95,-270,-590,-7173,14.22,1007.67,87853
-2,140,16262,9,0,-22,-96,-270,-591,-7178,14.22,1007.67,87869
42,122,16242,9,-2,-22,-96,-269,-588,-7185,14.22,1007.64,87886
6,76,16232,8,-1,-22,-95,-269,-588,-7184,14.22,1007.65,87903
22,124,16252,9,-2,-22,-96,-270,-593,-7183,14.22,1007.66,87920
-2,110,16258,9,-2,-21,-96,-270,-593,-7180,14.23,1007.67,87938
-34,110,16282,9,-2,-21,-96,-268,-589,-7166,14.23,1007.68,87955
30,142,16264,9,-1,-20,-102,-268,-589,-7175,14.23,1007.69,87972
4,118,16272,9,-1,-21,-99,-268,-589,-7169,14.23,1007.68,87989
-14,72,16226,9,-1,-20,-93,-270,-592,-7141,14.27,1007.59,90822
34,134,16250,8,-1,-21,-96,-269,-588,-7131,14.28,1007.63,90835
2,86,16196,9,-1,-22,-97,-266,-588,-7134,14.28,1007.58,90852
2,114,16262,8,0,-19,-95,-267,-587,-7124,14.3,1007.62,90868
44,76,16234,8,-1,-21,-98,-270,-588,-7131,14.3,1007.6,90886
20,128,16228,9,-1,-21,-98,-268,-592,-7135,14.3,1007.62,90902
18,100,16256,9,1,-20,-94,-268,-586,-7134,14.3,1007.6,90919
-2,102,16242,9,-1,-22,-99,-269,-590,-7121,14.31,1007.63,90937
38,124,16284,7,-1,-19,-98,-267,-586,-7128,14.31,1007.61,90953
-10,106,16220,9,0,-21,-95,-270,-593,-7127,14.32,1007.63,90971
2,110,16228,9,0,-21,-96,-267,-590,-7121,14.32,1007.59,90987
12,108,16286,8,0,-21,-95,-268,-587,-7119,14.33,1007.61,91004
8,122,16268,8,-3,-21,-98,-269,-586,-7124,14.33,1007.57,91021
24,112,16284,9,-2,-21,-97,-269,-589,-7125,14.33,1007.58,91038
16,120,16256,9,-1,-21,-100,-271,-586,-7134,14.33,1007.6,91056
18,116,16236,8,-1,-21,-96,-268,-587,-7129,14.34,1007.61,91073
8,118,16226,9,-2,-20,-97,-267,-585,-7125,14.34,1007.58,91089
-22,110,16240,8,-1,-21,-98,-266,-590,-7125,14.34,1007.6,91107
28,156,16250,9,-1,-23,-96,-268,-591,-7120,14.34,1007.59,91124
-18,72,16314,8,0,-21,-97,-268,-584,-7124,14.35,1007.6,91142
18,110,16280,7,1,-21,-98,-267,-584,-7119,14.35,1007.58,91158
28,104,16252,9,-1,-21,-96,-270,-586,-7125,14.35,1007.61,91175
36,72,16244,7,0,-21,-92,-269,-592,-7123,14.35,1007.6,91192
56,90,16278,8,-1,-19,-95,-270,-588,-7126,14.36,1007.61,91209
20,114,16260,9,0,-20,-100,-268,-587,-7121,14.36,1007.59,91226
20,94,16220,8,-2,-22,-98,-266,-586,-7131,14.37,1007.6,91243
32,84,16202,9,-1,-22,-99,-269,-592,-7122,14.37,1007.59,91259
14,102,16190,9,-1,-22,-95,-267,-590,-7129,14.37,1007.6,91277
34,98,16210,9,0,-21,-96,-270,-591,-7129,14.37,1007.59,91293
8,108,16196,9,-1,-20,-96,-268,-588,-7124,14.37,1007.61,91311
68,90,16254,8,-2,-20,-97,-267,-585,-7125,14.37,1007.6,91327
32,104,16224,9,-2,-20,-94,-266,-590,-7131,14.38,1007.61,91344
28,102,16232,10,-1,-21,-94,-267,-590,-7124,14.38,1007.6,91362
-26,94,16304,8,1,-20,-95,-269,-589,-7122,14.38,1007.61,91379
8,54,16288,8,-2,-21,-96,-267,-585,-7125,14.38,1007.58,91396
6,140,16252,8,-1,-21,-98,-266,-586,-7127,14.39,1007.59,91412
72,104,16248,8,-1,-20,-97,-270,-589,-7122,14.39,1007.59,91429
-16,112,16290,8,0,-21,-99,-268,-588,-7122,14.39,1007.6,91447
52,120,16306,9,-1,-21,-98,-270,-586,-7126,14.39,1007.59,91464
0,92,16276,8,-1,-21,-96,-269,-588,-7129,14.39,1007.6,91481
50,96,16240,9,-1,-19,-97,-269,-595,-7127,14.39,1007.6,91497
46,110,16278,9,0,-21,-94,-269,-588,-7120,14.4,1007.62,91514
16,142,16304,8,-1,-22,-97,-270,-590,-7122,14.4,1007.6,91532
-26,80,16224,9,0,-20,-99,-267,-589,-7121,14.4,1007.61,91548
14,114,16206,9,-1,-21,-95,-267,-589,-7110,14.4,1007.6,91566
10,100,16240,8,0,-22,-97,-270,-590,-7115,14.4,1007.61,91582
-24,130,16244,7,0,-22,-96,-270,-588,-7123,14.4,1007.57,91599
-48,88,16282,9,0,-20,-98,-268,-585,-7121,14.41,1007.58,91617
40,116,16252,8,-1,-21,-96,-269,-590,-7128,14.41,1007.59,91634
48,106,16268,10,0,-22,-96,-269,-588,-7118,14.41,1007.6,91651
28,122,16246,8,0,-21,-96,-269,-589,-7120,14.41,1007.62,91668
36,92,16216,10,0,-21,-95,-266,-585,-7069,14.46,1007.47,94501
18,74,16192,9,0,-21,-94,-265,-589,-7064,14.48,1007.52,94513
24,120,16240,8,0,-21,-100,-266,-586,-7052,14.48,1007.52,94530
22,86,16276,9,1,-22,-96,-270,-590,-7071,14.49,1007.55,94546
30,130,16198,9,0,-21,-94,-269,-589,-7072,14.49,1007.5,94564
-24,116,16230,8,-1,-22,-96,-269,-587,-7060,14.49,1007.52,94581
4,120,16188,8,-1,-20,-92,-265,-585,-7070,14.49,1007.54,94599
28,156,16226,9,-1,-22,-97,-266,-590,-7061,14.51,1007.57,94615
44,84,16196,9,-2,-21,-96,-268,-590,-7059,14.51,1007.55,94632
2,116,16144,9,-2,-21,-96,-269,-591,-7067,14.51,1007.56,94649
-16,114,16234,9,-1,-21,-106,-266,-590,-7069,14.51,1007.53,94667
-6,100,16246,10,0,-22,-96,-267,-590,-7060,14.51,1007.54,94684
-4,150,16258,8,-2,-21,-99,-269,-593,-7063,14.51,1007.55,94701
22,118,16246,8,-1,-21,-97,-270,-587,-7064,14.52,1007.57,94718
28,98,16250,9,-1,-21,-96,-267,-586,-7071,14.52,1007.56,94735
-22,128,16282,8,-1,-22,-95,-265,-588,-7065,14.53,1007.57,94752
32,98,16306,9,0,-22,-97,-266,-588,-7068,14.53,1007.53,94770
24,130,16210,9,-1,-20,-94,-270,-592,-7062,14.53,1007.55,94786
-18,114,16218,9,1,-21,-95,-270,-586,-7067,14.53,1007.53,94803
-8,110,16240,9,-2,-22,-93,-266,-585,-7058,14.54,1007.54,94821
26,116,16222,8,0,-21,-97,-265,-586,-7068,14.54,1007.54,94837
34,126,16210,9,-1,-19,-96,-267,-592,-7057,14.54,1007.56,94855
30,122,16228,8,0,-21,-97,-269,-585,-7063,14.54,1007.55,94872
8,78,16286,9,-2,-22,-95,-268,-585,-7060,14.55,1007.55,94888
18,114,16280,9,-2,-22,-95,-268,-586,-7056,14.55,1007.54,94906
38,90,16288,10,-1,-21,-96,-267,-592,-7061,14.55,1007.55,94922
-24,138,16296,9,0,-22,-97,-267,-590,-7057,14.55,1007.53,94940
-16,110,16256,9,-1,-21,-95,-266,-586,-7052,14.56,1007.54,94957
12,78,16274,9,-1,-22,-97,-266,-585,-7074,14.56,1007.58,94974
-28,140,16190,9,-1,-21,-98,-266,-589,-7054,14.56,1007.58,94992
18,88,16216,8,-1,-21,-100,-268,-591,-7055,14.56,1007.51,95008
6,118,16292,7,-1,-22,-97,-269,-587,-7056,14.56,1007.52,95026
-10,152,16226,8,-2,-21,-97,-266,-584,-7066,14.56,1007.56,95043
-22,86,16250,8,-1,-21,-97,-269,-589,-7057,14.57,1007.57,95060
4,168,16260,9,-1,-20,-99,-267,-590,-7059,14.57,1007.56,95077
24,118,16268,9,-1,-20,-97,-268,-588,-7058,14.57,1007.56,95094
52,96,16198,8,0,-22,-97,-268,-587,-7062,14.57,1007.56,95111
30,92,16232,9,-1,-22,-97,-269,-588,-7056,14.57,1007.57,95128
-6,88,16186,9,0,-22,-96,-268,-593,-7059,14.57,1007.55,95144
-2,132,16246,9,0,-21,-97,-268,-589,-7049,14.58,1007.56,95161
44,120,16204,9,0,-21,-96,-268,-589,-7059,14.58,1007.53,95178
14,76,16222,8,-1,-19,-95,-269,-585,-7066,14.58,1007.54,95195
34,116,16192,9,0,-21,-99,-267,-585,-7060,14.58,1007.55,95212
36,122,16202,9,-1,-22,-97,-268,-586,-7065,14.59,1007.57,95229
-16,142,16228,8,1,-22,-97,-268,-590,-7064,14.59,1007.55,95246
22,86,16264,11,0,-22,-97,-268,-589,-7061,14.59,1007.54,95263
-16,124,16272,10,-1,-22,-97,-268,-585,-7063,14.59,1007.59,95281
-12,68,16254,8,0,-22,-96,-269,-589,-7048,14.59,1007.6,95298
18,134,16244,10,-1,-20,-97,-266,-590,-7049,14.59,1007.56,95315
22,100,16246,8,-2,-20,-96,-267,-589,-7062,14.59,1007.56,95333
-6,118,16236,8,1,-21,-96,-268,-587,-7066,14.59,1007.57,95349
10,104,16218,9,-1,-21,-101,-267,-589,-7055,14.6,1007.58,95367
-16,108,16260,10,-1,-21,-99,-267,-591,-7050,14.6,1007.56,95384
-2,68,16216,9,0,-21,-97,-267,-589,-7062,14.6,1007.57,95401
22,150,16206,7,-1,-21,-96,-269,-589,-7048,14.6,1007.57,95418
4,84,16306,8,-1,-21,-95,-269,-587,-7051,14.6,1007.59,95435
0,94,16276,8,-2,-21,-97,-266,-587,-7053,14.6,1007.55,95452
-24,108,16210,9,-1,-20,-95,-268,-591,-7051,14.6,1007.55,95469
6,90,16214,9,0,-21,-97,-265,-589,-7057,14.6,1007.58,95485
26,114,16258,9,-2,-21,-96,-267,-585,-7057,14.61,1007.58,95503
38,96,16196,8,0,-21,-96,-266,-589,-7047,14.61,1007.55,95519
6,132,16240,8,-1,-22,-97,-270,-587,-7052,14.61,1007.56,95536
-14,112,16252,9,-2,-20,-98,-268,-590,-7049,14.61,1007.54,95553
6,120,16208,8,0,-21,-99,-270,-582,-7048,14.61,1007.55,95570
4,122,16192,8,-1,-21,-97,-265,-587,-7048,14.61,1007.55,95587
12,108,16220,9,-1,-21,-96,-267,-586,-7051,14.61,1007.56,95604
34,92,16160,9,-1,-20,-97,-269,-591,-7050,14.61,1007.54,95621
-52,64,16298,8,-1,-21,-95,-267,-589,-7052,14.62,1007.55,95638
22,158,16236,9,1,-20,-97,-265,-587,-7048,14.62,1007.57,95655
30,122,16236,9,0,-21,-98,-269,-585,-7054,14.62,1007.57,95672
10,106,16242,9,-1,-22,-98,-266,-587,-7046,14.62,1007.55,95689
6,130,16186,10,-1,-21,-99,-268,-593,-7053,14.62,1007.56,95707
42,66,16234,9,-2,-22,-95,-267,-585,-7047,14.62,1007.58,95723
12,146,16272,10,-1,-21,-98,-267,-585,-7050,14.63,1007.59,95740
-32,84,16274,8,-1,-20,-95,-265,-585,-7051,14.63,1007.57,95758
6,60,16204,10,0,-21,-100,-269,-591,-7053,14.63,1007.57,95774
48,98,16304,10,0,-20,-96,-268,-589,-7041,14.63,1007.57,95792
0,122,16220,8,-1,-22,-97,-267,-584,-7052,14.63,1007.57,95808
48,122,16208,9,0,-21,-96,-268,-587,-7045,14.63,1007.56,95825
10,98,16210,9,-1,-21,-97,-268,-587,-7045,14.63,1007.57,95842
12,132,16218,8,0,-21,-98,-270,-585,-7044,14.63,1007.56,95859
24,100,16274,8,0,-20,-98,-269,-588,-7041,14.63,1007.57,95876
10,124,16260,8,0,-21,-95,-269,-584,-7045,14.63,1007.56,95893
-8,122,16230,8,0,-22,-93,-268,-586,-7041,14.64,1007.57,95909
-30,138,16254,9,1,-22,-95,-269,-589,-7041,14.64,1007.57,95927
12,66,16240,9,-1,-21,-97,-268,-589,-7046,14.64,1007.57,95944
44,118,16202,8,-1,-21,-96,-270,-585,-7044,14.64,1007.55,95961
32,158,16292,9,0,-21,-95,-265,-586,-7038,14.64,1007.55,95978
-22,108,16208,8,0,-21,-97,-270,-588,-7037,14.64,1007.57,95995
12,98,16246,8,-1,-22,-96,-270,-584,-7040,14.64,1007.57,96012
-2,100,16188,8,-2,-20,-93,-269,-588,-7046,14.64,1007.52,96029
40,128,16216,9,-2,-22,-97,-267,-586,-7048,14.64,1007.53,96047
16,122,16160,9,-1,-22,-96,-267,-588,-7037,14.64,1007.56,96064
30,118,16216,9,0,-21,-95,-269,-589,-7045,14.65,1007.57,96080
30,102,16242,9,-1,-21,-98,-267,-588,-7044,14.65,1007.57,96098
20,82,16246,9,-1,-20,-95,-268,-591,-7046,14.65,1007.56,96114
30,64,16218,9,-2,-22,-98,-267,-585,-7040,14.65,1007.56,96132
26,126,16274,7,0,-20,-97,-266,-588,-7049,14.65,1007.57,96148
-18,64,16274,9,0,-20,-97,-268,-590,-7039,14.65,1007.56,96165
-4,142,16260,7,1,-21,-96,-267,-589,-7043,14.65,1007.57,96182
6,144,16254,9,-1,-21,-98,-268,-586,-7046,14.65,1007.57,96199
2,122,16254,10,-1,-21,-98,-267,-586,-7040,14.65,1007.57,96217
12,126,16268,10,1,-21,-98,-269,-589,-7040,14.65,1007.55,96233
16,94,16234,7,-1,-22,-98,-269,-589,-7040,14.66,1007.55,96250
12,68,16208,9,0,-21,-94,-267,-587,-7038,14.66,1007.54,96267
-6,78,16254,9,-1,-21,-98,-265,-589,-7038,14.66,1007.54,96284
14,116,16202,9,-1,-20,-97,-267,-587,-7042,14.66,1007.53,96301
10,102,16184,8,-2,-22,-97,-268,-589,-7041,14.66,1007.53,96318
18,142,16232,9,0,-21,-97,-267,-589,-7036,14.66,1007.52,96335
-40,122,16268,8,-2,-21,-97,-269,-582,-7035,14.66,1007.54,96353
-6,106,16220,9,0,-21,-98,-266,-585,-7040,14.66,1007.55,96369
52,118,16246,9,0,-22,-99,-266,-590,-7036,14.67,1007.56,96387
26,96,16274,9,0,-21,-95,-267,-588,-7037,14.67,1007.54,96403
48,102,16242,9,0,-21,-98,-267,-587,-7037,14.67,1007.54,96419
-12,136,16230,8,-1,-21,-96,-267,-587,-7037,14.67,1007.55,96437
0,102,16230,8,1,-20,-97,-268,-585,-7043,14.67,1007.55,96454
-4,68,16240,9,0,-21,-95,-269,-592,-7043,14.67,1007.54,96471
-10,90,16290,9,-2,-20,-94,-267,-591,-7037,14.67,1007.55,96488
24,74,16224,9,0,-21,-95,-265,-587,-7041,14.67,1007.55,96504
40,130,16212,9,0,-21,-98,-265,-589,-7037,14.68,1007.56,96521
30,104,16296,8,0,-23,-98,-267,-589,-7042,14.68,1007.54,96538
18,96,16224,9,0,-20,-97,-266,-590,-7040,14.68,1007.55,96555
-12,102,16274,8,0,-22,-101,-269,-584,-7036,14.68,1007.55,96572
48,102,16232,9,0,-20,-95,-265,-587,-7039,14.68,1007.56,96589
18,80,16216,8,-1,-20,-97,-268,-587,-7036,14.68,1007.53,96606
-6,120,16276,8,-2,-21,-97,-267,-590,-7037,14.68,1007.53,96623
30,96,16234,8,-2,-20,-93,-266,-590,-7039,14.68,1007.53,96640
16,134,16246,8,-1,-21,-94,-270,-584,-7040,14.68,1007.54,96657
46,90,16240,8,-2,-20,-94,-266,-586,-7036,14.68,1007.52,96674
-14,82,16246,10,-1,-22,-96,-268,-589,-7036,14.68,1007.52,96692
28,128,16246,8,-1,-21,-98,-268,-588,-7030,14.68,1007.54,96708
24,134,16252,9,-1,-20,-98,-269,-587,-7041,14.69,1007.54,96726
26,112,16272,9,0,-20,-98,-267,-586,-7036,14.69,1007.53,96743
-6,170,16214,10,0,-21,-94,-267,-587,-7036,14.69,1007.54,96759
-20,84,16240,9,1,-22,-97,-269,-591,-7034,14.69,1007.54,96777
18,96,16210,9,0,-20,-98,-269,-589,-7031,14.69,1007.55,96793
-10,88,16202,10,0,-21,-98,-267,-585,-7028,14.69,1007.53,96811
28,86,16174,9,-1,-21,-97,-266,-588,-7037,14.69,1007.53,96827
40,76,16236,8,-2,-21,-98,-266,-585,-7028,14.69,1007.53,96844
0,98,16214,9,-1,-20,-94,-269,-588,-7032,14.7,1007.54,96861
28,122,16216,9,1,-21,-97,-268,-590,-7025,14.7,1007.55,96878
-20,110,16224,8,-1,-21,-94,-265,-586,-7027,14.7,1007.55,96896
-22,120,16238,9,-1,-21,-97,-269,-587,-7038,14.7,1007.53,96913
14,120,16286,9,0,-21,-97,-266,-591,-7035,14.7,1007.54,96929
40,104,16232,8,-2,-21,-96,-269,-590,-7030,14.7,1007.52,96947
14,84,16200,10,0,-21,-97,-269,-589,-7029,14.7,1007.52,96964
46,128,16190,9,-1,-22,-97,-268,-588,-7032,14.7,1007.52,96980
10,138,16228,9,-1,-22,-97,-267,-589,-7037,14.7,1007.53,96998
48,112,16218,9,-1,-21,-96,-267,-591,-7026,14.7,1007.52,97015
-32,112,16244,9,0,-22,-96,-266,-589,-7033,14.7,1007.52,97033
28,122,16192,8,0,-20,-95,-266,-587,-7029,14.7,1007.5,97049
-20,170,16190,9,-1,-23,-97,-270,-589,-7029,14.71,1007.51,97067
-12,128,16206,9,0,-21,-96,-271,-589,-7028,14.71,1007.53,97084
-2,120,16260,8,-1,-20,-98,-267,-591,-7026,14.71,1007.54,97101
26,132,16192,10,-1,-20,-100,-268,-587,-7035,14.71,1007.51,97119
28,134,16152,8,-2,-22,-95,-265,-588,-7031,14.71,1007.51,97136
-16,110,16316,9,0,-21,-98,-266,-592,-7031,14.71,1007.51,97153
28,96,16180,8,-1,-21,-97,-267,-588,-7024,14.71,1007.51,97170
2,106,16262,9,0,-20,-98,-268,-585,-7029,14.71,1007.53,97186
26,120,16232,9,0,-20,-94,-266,-587,-7030,14.71,1007.53,97204
20,88,16272,9,-2,-20,-98,-267,-586,-7027,14.71,1007.51,97220
-22,102,16256,8,-1,-21,-97,-269,-594,-7023,14.72,1007.51,97238
-10,118,16252,9,0,-19,-96,-268,-588,-7027,14.72,1007.53,97255
4,106,16244,8,0,-21,-94,-266,-585,-7029,14.72,1007.54,97271
8,82,16268,9,-1,-22,-94,-268,-587,-7022,14.72,1007.5,97288
-16,74,16222,8,0,-21,-97,-268,-589,-7021,14.72,1007.51,97305
26,70,16234,8,0,-20,-98,-266,-592,-7026,14.72,1007.5,97321
58,124,16296,9,-1,-21,-97,-268,-585,-7021,14.72,1007.5,97339
-6,134,16284,8,0,-20,-94,-266,-586,-7022,14.72,1007.51,97355
8,30,16280,9,0,-22,-101,-265,-585,-7021,14.73,1007.52,97373
-18,126,16252,9,-1,-21,-96,-269,-590,-7030,14.73,1007.49,97390
2,86,16210,8,0,-20,-95,-268,-584,-7019,14.73,1007.49,97406
-12,92,16204,8,-2,-20,-95,-268,-585,-7022,14.73,1007.53,97423
-10,134,16236,8,-1,-20,-95,-269,-586,-7017,14.73,1007.54,97440
26,58,16186,8,-1,-20,-94,-266,-586,-7022,14.73,1007.51,97458
4,100,16216,8,0,-21,-100,-267,-588,-7023,14.73,1007.51,97474
14,126,16224,8,-3,-20,-94,-269,-588,-7017,14.73,1007.49,97491
56,86,16244,9,-1,-21,-96,-267,-587,-7021,14.73,1007.49,97509
6,76,16234,9,-1,-21,-96,-265,-587,-7023,14.73,1007.52,97525
10,54,16240,8,-1,-20,-95,-267,-591,-7017,14.74,1007.52,97542
16,100,16254,8,0,-22,-98,-270,-586,-7018,14.74,1007.5,97559
4,78,16306,9,-2,-21,-95,-266,-585,-7019,14.74,1007.52,97575
-14,112,16288,8,-1,-22,-98,-266,-585,-7015,14.74,1007.5,97593
34,98,16236,8,-2,-22,-96,-267,-586,-7014,14.74,1007.49,97610
2,122,16248,9,-1,-22,-94,-270,-587,-7012,14.74,1007.51,97627
-6,86,16206,9,-1,-22,-98,-268,-589,-7013,14.74,1007.53,97644
20,102,16206,9,0,-21,-95,-268,-584,-7027,14.74,1007.51,97660
12,106,16258,8,-1,-21,-94,-266,-588,-7022,14.75,1007.51,97678
48,84,16214,9,-1,-22,-95,-266,-590,-7012,14.75,1007.5,97695
74,98,16324,7,0,-22,-96,-268,-588,-7017,14.75,1007.5,97712
6,88,16156,8,1,-21,-95,-268,-588,-7015,14.75,1007.51,97728
-22,96,16230,8,0,-21,-95,-263,-589,-7016,14.75,1007.52,97744
16,86,16244,9,-1,-21,-97,-266,-586,-7019,14.75,1007.52,97762
16,62,16224,9,-3,-21,-94,-268,-589,-7019,14.75,1007.52,97778
30,122,16268,8,-1,-21,-96,-266,-590,-7008,14.75,1007.49,97796
46,68,16218,10,0,-22,-95,-267,-588,-7011,14.75,1007.49,97813
-10,118,16252,8,0,-20,-96,-267,-586,-7016,14.75,1007.49,97829
-20,122,16188,8,-1,-22,-97,-267,-590,-7008,14.75,1007.49,97847
-4,80,16276,9,-2,-21,-95,-268,-589,-7011,14.75,1007.47,97864
10,150,16220,8,0,-20,-94,-269,-588,-7009,14.76,1007.48,97881
64,112,16234,8,-1,-20,-95,-268,-585,-7014,14.76,1007.49,97898
32,136,16220,9,-1,-22,-93,-269,-589,-7008,14.76,1007.5,97915
14,116,16230,9,-3,-21,-96,-268,-592,-7015,14.76,1007.49,97933
26,102,16276,10,0,-21,-96,-267,-588,-7014,14.76,1007.49,97949
0,134,16164,9,0,-21,-95,-268,-585,-7004,14.76,1007.46,97967
16,80,16246,9,0,-21,-94,-268,-584,-7008,14.76,1007.47,97983
58,138,16250,9,-1,-21,-96,-266,-590,-7007,14.76,1007.49,98000
-6,72,16256,9,-2,-20,-97,-268,-587,-7011,14.77,1007.5,98017
22,104,16286,9,-2,-21,-95,-265,-589,-7018,14.77,1007.52,98034
-14,98,16204,9,-1,-21,-97,-266,-583,-7007,14.77,1007.53,98052
-34,110,16218,9,0,-20,-94,-267,-589,-7016,14.77,1007.51,98068
-34,112,16232,8,0,-20,-97,-270,-590,-7012,14.77,1007.51,98085
-26,84,16262,8,-1,-20,-95,-270,-589,-7001,14.77,1007.49,98103
8,122,16250,9,0,-20,-95,-268,-585,-7005,14.77,1007.49,98119
26,104,16312,8,-1,-21,-97,-268,-587,-7009,14.77,1007.52,98137
60,84,16254,9,0,-20,-96,-266,-589,-7005,14.77,1007.52,98153
-2,112,16230,9,-1,-21,-96,-267,-588,-7015,14.77,1007.46,98170
-14,52,16242,9,-2,-21,-97,-267,-585,-7015,14.77,1007.48,98188
32,116,16238,10,-1,-20,-97,-265,-588,-7008,14.77,1007.49,98205
6,126,16232,9,-1,-21,-96,-267,-588,-7006,14.77,1007.49,98222
22,116,16226,9,0,-23,-94,-268,-592,-7010,14.77,1007.5,98239
56,132,16210,7,0,-19,-96,-268,-589,-7002,14.78,1007.5,98255
-4,86,16230,10,-2,-21,-97,-265,-586,-7005,14.78,1007.47,98273
18,118,16242,8,-1,-22,-97,-265,-586,-7001,14.78,1007.47,98290
0,92,16228,9,-1,-22,-97,-264,-589,-7009,14.78,1007.48,98307
-20,86,16232,8,-1,-21,-94,-266,-590,-7006,14.78,1007.49,98324
20,120,16202,9,-1,-20,-93,-268,-588,-7009,14.78,1007.49,98340
24,64,16186,9,-1,-20,-94,-268,-585,-7004,14.78,1007.49,98358
2,90,16190,9,0,-22,-97,-266,-587,-7007,14.78,1007.5,98374
6,80,16208,8,-1,-22,-98,-266,-589,-7003,14.79,1007.51,98391
38,118,16300,10,-1,-22,-97,-268,-586,-7007,14.79,1007.46,98408
-32,100,16308,9,-1,-21,-98,-268,-586,-7003,14.79,1007.46,98425
30,80,16274,9,-1,-20,-96,-266,-588,-7003,14.79,1007.48,98443
-16,92,16236,9,-2,-20,-98,-267,-588,-7012,14.79,1007.48,98460
26,112,16294,9,-2,-21,-95,-271,-587,-7000,14.79,1007.5,98477
-4,120,16250,8,-2,-22,-92,-266,-587,-7009,14.79,1007.49,98494
-6,78,16188,8,-1,-20,-95,-266,-586,-7001,14.79,1007.49,98511
-24,104,16280,8,-1,-22,-94,-265,-587,-6994,14.79,1007.5,98529
14,104,16276,9,-1,-21,-96,-269,-590,-7000,14.79,1007.49,98545
-48,100,16266,9,-1,-21,-97,-270,-587,-7003,14.79,1007.5,98563
-24,120,16222,9,-1,-21,-95,-266,-586,-7006,14.79,1007.49,98580
-18,122,16224,10,-1,-21,-97,-265,-588,-6992,14.79,1007.48,98598
-6,106,16226,8,-1,-21,-95,-266,-592,-7003,14.79,1007.49,98615
12,146,16264,9,0,-21,-96,-269,-588,-7000,14.79,1007.5,98632
20,104,16238,8,1,-21,-94,-267,-585,-6994,14.79,1007.52,98649
-38,86,16200,8,-2,-21,-96,-265,-586,-7001,14.8,1007.52,98666
-14,104,16216,7,-1,-21,-91,-268,-588,-7000,14.8,1007.48,98683
32,76,16230,9,-2,-22,-96,-268,-590,-7000,14.8,1007.49,98701
32,106,16190,9,0,-21,-96,-269,-588,-6997,14.8,1007.52,98717
2,106,16272,9,0,-21,-95,-269,-586,-6998,14.8,1007.52,98734
14,144,16290,9,0,-21,-95,-267,-586,-7000,14.8,1007.5,98751
18,84,16220,10,-1,-22,-103,-266,-589,-7000,14.8,1007.51,98768
-12,82,16212,9,-1,-21,-96,-269,-588,-6998,14.8,1007.48,98786
18,106,16262,9,1,-21,-96,-269,-588,-6999,14.8,1007.48,98802
14,112,16212,9,-1,-21,-97,-268,-587,-6994,14.8,1007.47,98820
24,128,16306,9,-1,-22,-95,-267,-586,-7001,14.81,1007.48,98837
34,102,16222,9,-1,-21,-96,-269,-591,-6996,14.81,1007.5,98853
-2,104,16266,8,-1,-20,-96,-270,-590,-6993,14.81,1007.51,98871
4,78,16216,9,-2,-21,-92,-267,-585,-6988,14.81,1007.49,98887
-14,82,16266,9,0,-21,-96,-266,-585,-6987,14.81,1007.5,98905
20,116,16256,9,-3,-21,-95,-265,-585,-6994,14.81,1007.51,98922
-26,118,16242,9,-1,-21,-96,-267,-590,-6988,14.81,1007.52,98939
-28,92,16262,9,-2,-21,-97,-267,-583,-6987,14.81,1007.5,98956
76,90,16196,9,0,-20,-97,-267,-587,-6991,14.81,1007.5,98973
4,128,16252,9,-2,-21,-98,-268,-586,-6994,14.81,1007.51,98990
46,128,16192,8,-1,-21,-96,-268,-592,-6989,14.82,1007.51,99007
24,122,16206,8,-2,-21,-97,-268,-586,-6985,14.82,1007.48,99024
16,92,16172,8,-1,-21,-96,-265,-585,-7002,14.82,1007.49,99041
-8,100,16192,9,-2,-21,-98,-265,-586,-6995,14.82,1007.49,99058
2,118,16206,9,0,-21,-95,-265,-591,-6993,14.82,1007.49,99075
-22,86,16226,9,-2,-21,-98,-267,-589,-6997,14.82,1007.5,99092
54,128,16266,9,-1,-21,-99,-265,-586,-6991,14.82,1007.5,99109
52,90,16262,9,0,-22,-98,-265,-587,-6995,14.82,1007.51,99126
60,74,16252,10,-1,-22,-98,-268,-587,-6984,14.82,1007.52,99143
16,134,16234,9,0,-21,-95,-270,-586,-6990,14.82,1007.5,99160
48,132,16236,10,-1,-22,-96,-269,-587,-6989,14.83,1007.51,99177
-24,102,16266,8,-1,-23,-95,-266,-585,-6993,14.83,1007.51,99194
12,92,16240,9,0,-20,-95,-266,-588,-6986,14.83,1007.51,99212
18,94,16256,8,0,-22,-98,-267,-590,-6988,14.83,1007.51,99228
6,70,16218,9,-1,-20,-97,-266,-589,-6993,14.83,1007.51,99245
32,160,16218,10,-2,-21,-96,-266,-588,-6992,14.83,1007.5,99262
0,94,16292,8,-2,-21,-97,-265,-585,-6993,14.83,1007.5,99278
30,92,16224,8,-1,-21,-97,-268,-587,-6995,14.83,1007.5,99296
24,60,16216,9,-1,-23,-98,-270,-587,-6988,14.83,1007.52,99312
-28,130,16228,10,-1,-21,-94,-268,-590,-6989,14.83,1007.52,99331
34,134,16256,9,-1,-20,-97,-268,-586,-6991,14.83,1007.52,99347
-4,112,16272,10,-1,-21,-96,-263,-587,-6992,14.83,1007.5,99364
30,120,16240,9,0,-21,-98,-266,-589,-6991,14.84,1007.5,99382
50,110,16184,9,0,-21,-98,-269,-589,-6979,14.84,1007.5,99398
-16,118,16220,8,-1,-22,-95,-267,-588,-6980,14.84,1007.51,99416
12,114,16216,8,0,-20,-95,-269,-585,-6989,14.84,1007.52,99433
6,128,16288,8,-1,-21,-97,-267,-585,-6988,14.84,1007.52,99449
-14,116,16230,9,-1,-22,-93,-266,-589,-6988,14.84,1007.51,99467
6,104,16286,8,0,-21,-97,-267,-590,-6986,14.84,1007.52,99484
2,108,16218,9,-1,-20,-94,-268,-586,-6989,14.84,1007.53,99501
2,134,16222,8,0,-22,-98,-271,-585,-6986,14.84,1007.54,99517
16,108,16246,9,0,-20,-96,-267,-588,-6986,14.84,1007.5,99534
38,72,16174,8,-1,-22,-96,-267,-586,-6985,14.85,1007.51,99551
0,118,16208,9,0,-19,-97,-267,-586,-6986,14.85,1007.51,99568
20,106,16266,8,0,-20,-98,-268,-587,-6985,14.85,1007.52,99585
20,98,16244,9,-1,-21,-96,-266,-587,-6985,14.85,1007.5,99602
28,122,16198,8,-2,-22,-97,-268,-590,-6980,14.85,1007.5,99618
38,148,16182,9,0,-22,-96,-268,-587,-6979,14.85,1007.52,99636
36,94,16284,10,-1,-22,-94,-265,-588,-6977,14.85,1007.52,99653
20,130,16250,9,-1,-20,-100,-266,-586,-6981,14.85,1007.53,99671
52,124,16146,7,0,-21,-98,-267,-588,-6985,14.85,1007.52,99687
-8,106,16258,9,-2,-21,-97,-265,-587,-6982,14.85,1007.51,99704
6,122,16176,8,0,-22,-95,-267,-577,-6987,14.85,1007.52,99721
24,128,16248,8,0,-20,-96,-263,-585,-6986,14.85,1007.51,99738
10,146,16246,8,-1,-22,-97,-266,-585,-6983,14.86,1007.51,99755
32,122,16274,7,0,-20,-94,-266,-591,-6983,14.86,1007.51,99772
28,80,16262,9,1,-21,-96,-265,-586,-6983,14.86,1007.52,99788
22,136,16280,9,0,-20,-95,-269,-586,-6982,14.86,1007.53,99806
-34,130,16226,8,-2,-21,-97,-266,-589,-6975,14.86,1007.52,99823
-8,90,16236,9,-1,-20,-99,-267,-587,-6982,14.86,1007.52,99840
12,144,16252,10,-1,-21,-98,-267,-591,-6985,14.86,1007.53,99857
6,96,16260,9,-1,-21,-97,-265,-584,-6986,14.86,1007.53,99874
44,104,16218,9,0,-22,-96,-265,-583,-6976,14.87,1007.54,99891
-38,80,16240,9,-1,-21,-97,-267,-588,-6981,14.87,1007.52,99908
6,102,16328,9,-2,-20,-95,-269,-591,-6985,14.86,1007.51,99924
18,112,16246,8,-1,-22,-96,-269,-591,-6979,14.86,1007.56,99942
6,50,16212,9,-2,-22,-94,-266,-584,-6978,14.87,1007.57,99958
52,124,16158,9,-1,-21,-98,-268,-587,-6981,14.87,1007.52,99976
30,134,16202,10,0,-20,-100,-266,-586,-6970,14.87,1007.52,99993
-22,136,16246,9,-1,-21,-94,-269,-584,-6979,14.87,1007.51,100011
70,110,16152,9,-1,-22,-97,-269,-588,-6974,14.87,1007.51,100028
-6,110,16224,9,0,-20,-96,-266,-586,-6976,14.87,1007.53,100045
20,102,16210,8,0,-20,-95,-265,-586,-6973,14.87,1007.53,100063
22,96,16184,9,0,-21,-95,-268,-589,-6976,14.87,1007.54,100079
26,100,16294,8,-2,-23,-96,-268,-588,-6969,14.87,1007.55,100097
4,110,16144,10,-1,-21,-96,-268,-584,-6977,14.87,1007.56,100114
32,84,16236,9,-1,-21,-93,-265,-586,-6976,14.87,1007.55,100131
-18,120,16254,9,-1,-21,-94,-267,-591,-6975,14.87,1007.55,100149
42,120,16232,8,0,-21,-95,-264,-589,-6971,14.88,1007.56,100166
-2,130,16192,8,0,-20,-95,-270,-587,-6971,14.88,1007.53,100184
8,108,16270,8,-1,-21,-95,-268,-586,-6973,14.88,1007.54,100200
2,90,16192,8,-2,-22,-97,-268,-586,-6971,14.88,1007.53,100217
-16,74,16224,9,0,-21,-99,-270,-588,-6981,14.88,1007.53,100235
4,134,16204,7,-1,-22,-96,-268,-590,-6976,14.88,1007.57,100251
-12,98,16282,9,-2,-21,-95,-265,-588,-6978,14.88,1007.57,100269
42,94,16258,10,-1,-20,-97,-267,-586,-6971,14.88,1007.54,100286
12,130,16224,8,0,-21,-95,-266,-589,-6976,14.88,1007.55,100303
38,112,16218,9,-2,-22,-94,-265,-588,-6974,14.88,1007.53,100321
20,90,16214,10,0,-21,-96,-267,-585,-6966,14.88,1007.53,100338
22,98,16276,8,0,-22,-95,-267,-586,-6973,14.88,1007.54,100355
0,80,16224,8,0,-21,-97,-267,-587,-6968,14.88,1007.54,100372
-4,96,16170,9,0,-23,-97,-266,-590,-6976,14.88,1007.56,100388
42,74,16222,9,-2,-20,-94,-270,-588,-6972,14.89,1007.57,100406
-36,94,16168,9,-1,-22,-95,-267,-585,-6971,14.89,1007.54,100423
30,64,16264,9,-1,-21,-97,-267,-586,-6967,14.89,1007.53,100441
2,76,16218,9,0,-20,-98,-265,-586,-6962,14.89,1007.56,100457
14,86,16186,9,-2,-21,-94,-268,-591,-6978,14.89,1007.58,100474
6,130,16184,10,-1,-22,-97,-266,-583,-6970,14.89,1007.56,100492
-22,126,16206,8,0,-22,-97,-265,-586,-6972,14.89,1007.56,100509
24,102,16270,8,0,-20,-95,-265,-585,-6967,14.89,1007.57,100527
72,102,16174,9,-2,-22,-97,-268,-589,-6969,14.89,1007.56,100544
-12,82,16218,9,-1,-22,-96,-268,-590,-6966,14.89,1007.55,100561
16,80,16230,9,0,-22,-96,-267,-585,-6968,14.9,1007.57,100578
-4,118,16190,9,0,-20,-97,-268,-587,-6969,14.9,1007.55,100595
4,126,16190,9,0,-23,-94,-270,-590,-6977,14.9,1007.55,100612
2,104,16182,9,-1,-23,-96,-264,-589,-6968,14.9,1007.56,100629
24,78,16216,9,-2,-21,-97,-266,-585,-6962,14.9,1007.56,100646
46,114,16190,10,-1,-22,-97,-270,-585,-6969,14.9,1007.55,100664
18,132,16190,8,0,-21,-95,-267,-588,-6964,14.9,1007.56,100681
46,88,16252,8,-1,-22,-96,-269,-590,-6969,14.9,1007.56,100699
24,64,16240,9,-1,-21,-94,-268,-586,-6965,14.9,1007.56,100715
-36,106,16216,9,-1,-22,-96,-266,-585,-6972,14.9,1007.57,100733
6,110,16206,9,-2,-20,-99,-268,-585,-6963,14.91,1007.57,100750
-16,70,16210,9,0,-20,-96,-267,-591,-6972,14.91,1007.56,100767
66,124,16208,9,0,-22,-98,-270,-588,-6965,14.91,1007.57,100785
-4,124,16226,9,0,-21,-95,-268,-587,-6955,14.91,1007.53,100802
34,124,16194,8,1,-21,-97,-265,-581,-6963,14.91,1007.54,100818
-2,108,16224,10,0,-22,-96,-266,-590,-6967,14.91,1007.55,100836
30,148,16210,9,-1,-20,-95,-267,-589,-6959,14.91,1007.55,100853
-24,98,16240,9,-1,-20,-95,-269,-587,-6971,14.91,1007.53,100871
14,76,16196,7,1,-21,-95,-267,-585,-6969,14.91,1007.54,100888
-54,84,16230,8,-1,-21,-96,-266,-586,-6971,14.91,1007.56,100905
22,98,16118,8,-1,-21,-96,-265,-591,-6977,14.91,1007.55,100923
8,106,16290,9,0,-20,-94,-269,-587,-6966,14.91,1007.56,100939
40,146,16182,9,1,-21,-100,-269,-586,-6959,14.92,1007.58,100957
26,126,16178,8,-1,-20,-95,-266,-590,-6975,14.92,1007.56,100974
52,106,16252,8,-1,-22,-95,-267,-585,-6962,14.92,1007.56,100992
44,124,16234,8,-2,-21,-96,-266,-585,-6961,14.92,1007.53,101009
38,116,16216,8,-1,-21,-96,-267,-587,-6957,14.92,1007.53,101026
18,78,16246,9,-1,-21,-95,-267,-585,-6958,14.92,1007.55,101044
24,112,16200,8,-2,-22,-96,-265,-588,-6958,14.92,1007.56,101061
2,104,16212,9,-1,-22,-95,-266,-588,-6962,14.92,1007.55,101079
24,132,16272,9,-1,-20,-96,-266,-589,-6961,14.92,1007.55,101096
52,86,16208,9,0,-22,-97,-269,-585,-6955,14.92,1007.54,101112
32,98,16194,9,0,-21,-97,-266,-587,-6961,14.92,1007.54,101130
2,82,16264,8,0,-21,-100,-269,-590,-6961,14.92,1007.52,101146
22,88,16192,9,0,-21,-97,-268,-590,-6958,14.92,1007.53,101164
38,130,16186,8,-1,-21,-94,-267,-588,-6958,14.92,1007.53,101181
36,102,16300,9,-1,-22,-97,-267,-585,-6960,14.93,1007.55,101198
-24,150,16270,7,-1,-21,-94,-266,-590,-6960,14.93,1007.56,101216
24,92,16250,8,0,-22,-96,-266,-590,-6957,14.93,1007.55,101233
8,134,16168,7,-1,-22,-95,-266,-588,-6959,14.93,1007.54,101250
22,112,16272,9,-2,-22,-95,-266,-587,-6951,14.93,1007.54,101267
38,80,16226,9,1,-20,-92,-267,-585,-6958,14.93,1007.55,101284
0,76,16262,10,-1,-21,-96,-267,-587,-6962,14.93,1007.56,101302
4,62,16222,9,0,-21,-97,-266,-585,-6959,14.93,1007.57,101318
-24,116,16146,9,0,-22,-96,-267,-588,-6954,14.93,1007.57,101336
8,86,16230,9,-2,-21,-96,-270,-587,-6959,14.93,1007.53,101352
16,88,16282,8,0,-21,-97,-264,-586,-6956,14.94,1007.54,101369
52,88,16198,9,-1,-21,-99,-268,-589,-6949,14.94,1007.52,101387
22,110,16200,10,1,-22,-95,-266,-589,-6957,14.94,1007.53,101404
22,78,16228,9,0,-20,-96,-265,-584,-6955,14.94,1007.53,101421
50,90,16174,9,-1,-20,-95,-266,-585,-6953,14.94,1007.54,101438
44,92,16220,9,-1,-21,-99,-266,-590,-6947,14.94,1007.54,101455
2,106,16230,8,0,-22,-95,-268,-591,-6952,14.94,1007.53,101472
62,110,16236,9,-1,-21,-97,-267,-588,-6954,14.94,1007.55,101489
6,130,16216,9,0,-22,-96,-266,-586,-6953,14.94,1007.56,101507
54,90,16206,9,-1,-21,-96,-266,-585,-6961,14.94,1007.54,101524
-4,82,16232,9,0,-21,-95,-267,-592,-6960,14.95,1007.55,101540
28,146,16252,9,0,-21,-96,-268,-589,-6955,14.95,1007.54,101558
8,100,16208,9,-1,-21,-94,-267,-585,-6962,14.95,1007.55,101575
54,58,16162,9,-1,-20,-96,-267,-584,-6957,14.95,1007.54,101592
40,140,16238,9,-1,-21,-94,-265,-588,-6960,14.95,1007.54,101609
-2,70,16208,8,-1,-21,-98,-269,-590,-6957,14.95,1007.57,101626
6,128,16272,9,-1,-21,-96,-269,-585,-6956,14.95,1007.57,101644
-36,110,16222,9,-1,-21,-97,-266,-586,-6956,14.95,1007.52,101661
26,122,16218,7,-1,-21,-95,-268,-590,-6952,14.95,1007.53,101679
30,84,16170,9,-1,-21,-96,-268,-587,-6954,14.95,1007.54,101696
-20,102,16214,9,-3,-21,-95,-269,-587,-6952,14.95,1007.54,101713
34,108,16274,8,-1,-19,-98,-267,-583,-6946,14.95,1007.54,101731
-16,126,16224,9,-1,-21,-97,-265,-587,-6944,14.95,1007.54,101748
-22,108,16198,9,0,-21,-97,-270,-589,-6951,14.95,1007.53,101766
12,112,16240,8,0,-21,-96,-267,-588,-6950,14.95,1007.53,101783
16,132,16214,9,0,-21,-96,-267,-586,-6947,14.95,1007.53,101800
34,114,16168,8,-2,-21,-96,-265,-586,-6948,14.96,1007.54,101818
-22,86,16258,10,-1,-20,-97,-265,-591,-6953,14.96,1007.54,101835
24,122,16204,9,-1,-21,-97,-270,-591,-6945,14.95,1007.54,101853
0,120,16268,9,0,-20,-97,-264,-587,-6950,14.95,1007.52,101870
-2,114,16234,9,0,-21,-94,-267,-585,-6947,14.96,1007.53,101888
20,106,16186,8,-1,-21,-95,-267,-588,-6947,14.96,1007.53,101905
34,108,16220,9,-1,-22,-96,-266,-587,-6950,14.96,1007.52,101922
0,116,16226,9,-1,-21,-95,-268,-589,-6941,14.96,1007.53,101939
24,112,16178,10,-2,-20,-96,-266,-585,-6940,14.96,1007.54,101957
64,122,16262,9,1,-20,-97,-266,-585,-6942,14.96,1007.53,101974
10,90,16260,9,0,-22,-96,-266,-589,-6944,14.96,1007.54,101991
2,84,16226,8,1,-22,-98,-269,-591,-6950,14.96,1007.55,102007
-10,74,16214,9,0,-21,-98,-268,-586,-6951,14.97,1007.56,102025
58,108,16184,9,0,-20,-97,-268,-587,-6946,14.97,1007.54,102042
40,84,16198,9,0,-22,-97,-266,-585,-6940,14.97,1007.55,102059
24,98,16256,9,-2,-21,-93,-265,-588,-6947,14.97,1007.53,102076
-2,104,16252,9,-1,-21,-98,-264,-589,-6949,14.97,1007.54,102093
2,108,16242,9,-1,-22,-95,-266,-585,-6945,14.97,1007.54,102111
-14,114,16218,9,-2,-21,-98,-263,-588,-6947,14.97,1007.54,102128
-4,90,16202,10,-1,-22,-97,-268,-585,-6938,14.97,1007.49,102146
58,144,16246,10,-2,-21,-100,-265,-587,-6950,14.97,1007.49,102163
24,118,16212,8,-2,-21,-94,-268,-589,-6943,14.97,1007.52,102180
26,74,16244,8,-1,-21,-96,-267,-586,-6938,14.97,1007.52,102198
4,70,16250,9,0,-21,-97,-267,-588,-6946,14.97,1007.53,102214
-2,78,16252,9,0,-21,-98,-269,-589,-6935,14.98,1007.53,102232
-6,124,16190,8,0,-21,-97,-265,-586,-6937,14.98,1007.54,102249
66,64,16274,8,-1,-21,-96,-265,-586,-6944,14.98,1007.55,102265
26,114,16162,9,-1,-21,-96,-267,-587,-6937,14.98,1007.5,102283
8,132,16238,9,-2,-21,-97,-269,-588,-6947,14.98,1007.5,102300
-2,112,16188,8,0,-20,-96,-266,-591,-6943,14.98,1007.52,102318
34,148,16260,9,0,-21,-95,-270,-589,-6945,14.99,1007.53,102335
4,118,16264,10,0,-21,-102,-268,-587,-6937,14.99,1007.53,102352
-48,100,16218,9,-2,-22,-97,-268,-587,-6937,14.99,1007.53,102370
-10,82,16252,9,-1,-22,-94,-268,-589,-6936,14.99,1007.52,102387
-30,104,16262,8,-1,-21,-95,-269,-589,-6934,14.99,1007.52,102405
46,102,16174,10,0,-21,-97,-267,-584,-6938,14.99,1007.54,102422
50,130,16208,10,-1,-22,-96,-265,-587,-6941,14.99,1007.56,102440
42,90,16316,8,-1,-21,-96,-267,-586,-6939,14.99,1007.53,102457
2,104,16210,9,0,-22,-95,-265,-590,-6939,14.99,1007.52,102474
-14,96,16226,8,-2,-21,-98,-270,-587,-6942,14.99,1007.51,102492
16,40,16198,8,0,-21,-98,-265,-589,-6942,14.99,1007.52,102508
10,136,16208,9,-2,-21,-95,-267,-585,-6932,14.99,1007.51,102525
18,110,16242,9,-1,-20,-98,-263,-591,-6931,15,1007.52,102543
-4,80,16170,9,0,-21,-96,-269,-587,-6934,15,1007.52,102560
-10,110,16216,8,-1,-20,-95,-268,-585,-6937,15,1007.53,102578
60,112,16230,9,-1,-20,-96,-267,-586,-6934,15,1007.54,102595
52,128,16262,9,-1,-22,-97,-267,-588,-6934,15,1007.54,102612
40,76,16196,9,0,-20,-93,-270,-589,-6940,15,1007.51,102630
-20,124,16226,8,-2,-22,-96,-268,-585,-6938,15,1007.52,102647
44,88,16188,9,-1,-21,-97,-264,-585,-6930,15,1007.54,102665
42,92,16204,9,-2,-23,-97,-269,-589,-6927,15,1007.55,102681
48,72,16218,9,-1,-20,-94,-266,-590,-6932,15,1007.53,102699
-24,112,16220,8,-1,-20,-95,-267,-587,-6938,15.01,1007.54,102716
-10,114,16282,8,-1,-22,-97,-267,-585,-6933,15.01,1007.51,102734
86,124,16256,8,-1,-21,-98,-265,-584,-6928,15,1007.51,102752
16,110,16304,7,-1,-20,-94,-267,-588,-6932,15,1007.54,102769
2,104,16210,10,-1,-21,-95,-268,-590,-6937,15.01,1007.55,102787
2,158,16252,9,-2,-21,-97,-268,-587,-6927,15.01,1007.54,102804
6,98,16200,9,0,-21,-97,-265,-585,-6933,15.01,1007.53,102820
6,112,16246,7,0,-22,-97,-265,-589,-6927,15.01,1007.5,102837
10,136,16216,9,0,-21,-96,-267,-585,-6929,15.01,1007.51,102854
-28,80,16168,9,0,-21,-94,-267,-586,-6930,15.01,1007.52,102872
22,102,16234,10,0,-20,-95,-267,-589,-6928,15.01,1007.53,102889
4,106,16206,9,0,-21,-92,-268,-586,-6928,15.01,1007.53,102905
32,122,16218,9,0,-22,-96,-269,-591,-6930,15.02,1007.53,102923
-18,150,16214,10,0,-22,-94,-268,-585,-6928,15.02,1007.52,102940
14,134,16212,9,-1,-21,-97,-266,-584,-6926,15.02,1007.53,102958
36,70,16224,10,0,-22,-96,-267,-586,-6934,15.02,1007.52,102975
58,110,16280,9,1,-21,-96,-266,-588,-6924,15.02,1007.52,102992
-26,96,16178,8,0,-20,-96,-267,-590,-6929,15.02,1007.51,103010
32,110,16256,9,-1,-21,-95,-267,-587,-6930,15.02,1007.52,103027
30,80,16226,8,-2,-19,-97,-269,-586,-6931,15.02,1007.53,103044
32,120,16216,8,-1,-22,-98,-266,-588,-6931,15.02,1007.53,103061
-24,90,16278,9,0,-22,-96,-267,-590,-6922,15.02,1007.53,103078
38,156,16240,9,-1,-20,-98,-268,-590,-6927,15.03,1007.54,103096
-2,88,16270,10,0,-22,-95,-265,-582,-6929,15.03,1007.52,103113
36,76,16218,8,-1,-21,-98,-265,-588,-6919,15.03,1007.52,103131
-10,106,16202,8,1,-21,-97,-265,-587,-6922,15.03,1007.52,103148
16,132,16216,9,-2,-21,-97,-270,-589,-6928,15.03,1007.53,103165
4,126,16248,9,0,-20,-96,-269,-585,-6932,15.03,1007.53,103182
10,154,16192,9,-1,-21,-93,-268,-584,-6928,15.03,1007.53,103199
78,126,16194,8,0,-21,-94,-266,-589,-6932,15.03,1007.53,103217
-28,110,16208,9,0,-22,-98,-267,-589,-6915,15.03,1007.53,103234
-8,124,16220,9,1,-21,-95,-269,-585,-6929,15.03,1007.52,103251
10,112,16230,9,0,-22,-96,-267,-587,-6924,15.03,1007.52,103269
24,106,16210,9,1,-22,-100,-266,-585,-6930,15.03,1007.54,103286
16,94,16224,10,0,-22,-96,-266,-588,-6930,15.03,1007.54,103303
-22,72,16212,8,0,-21,-95,-269,-588,-6927,15.03,1007.51,103320
20,114,16190,8,0,-22,-94,-266,-586,-6922,15.04,1007.52,103337
-34,110,16254,8,-1,-20,-97,-266,-585,-6929,15.04,1007.5,103355
-34,118,16228,10,-1,-22,-95,-269,-588,-6925,15.04,1007.5,103373
6,90,16244,9,0,-22,-96,-268,-587,-6924,15.04,1007.55,103390
8,132,16278,10,-1,-20,-97,-266,-585,-6917,15.04,1007.55,103407
-2,102,16214,9,-2,-20,-96,-265,-586,-6924,15.04,1007.52,103425
18,102,16260,8,-1,-21,-95,-264,-585,-6924,15.04,1007.53,103442
30,84,16250,8,1,-21,-97,-267,-587,-6916,15.04,1007.52,103458
26,96,16236,8,0,-21,-97,-267,-587,-6921,15.04,1007.52,103476
-4,78,16222,9,-1,-21,-94,-268,-586,-6918,15.04,1007.51,103493
14,86,16242,8,0,-20,-95,-266,-586,-6913,15.05,1007.52,103510
-22,148,16246,9,-1,-21,-96,-267,-587,-6919,15.05,1007.48,103527
-14,108,16248,9,-2,-21,-98,-270,-584,-6917,15.05,1007.49,103545
14,138,16216,9,0,-22,-96,-264,-588,-6926,15.05,1007.52,103562
22,110,16214,8,-2,-20,-97,-266,-585,-6924,15.05,1007.52,103579
6,64,16268,8,0,-21,-99,-267,-584,-6917,15.05,1007.51,103597
38,122,16246,7,1,-21,-93,-269,-587,-6922,15.05,1007.51,103613
-12,108,16252,9,0,-21,-96,-269,-590,-6920,15.05,1007.53,103630
-14,114,16194,9,-2,-21,-97,-268,-586,-6916,15.05,1007.53,103649
6,98,16266,9,-1,-21,-95,-266,-587,-6919,15.05,1007.51,103665
26,120,16260,10,0,-20,-98,-266,-587,-6921,15.05,1007.51,103683
16,86,16242,8,0,-21,-97,-266,-589,-6925,15.05,1007.51,103700
-4,112,16212,8,0,-20,-93,-263,-587,-6917,15.05,1007.51,103717
26,148,16230,9,0,-20,-97,-266,-585,-6922,15.05,1007.51,103734
-8,60,16172,9,0,-21,-101,-266,-587,-6916,15.06,1007.52,103751
-38,118,16250,9,-1,-21,-99,-269,-592,-6923,15.06,1007.5,103769
6,136,16258,8,-2,-22,-96,-268,-588,-6917,15.06,1007.51,103786
22,132,16248,10,0,-21,-97,-267,-584,-6923,15.06,1007.53,103803
24,96,16258,9,1,-22,-100,-268,-585,-6918,15.06,1007.53,103821
20,114,16148,9,-1,-20,-97,-267,-589,-6912,15.06,1007.52,103838
20,82,16196,9,-1,-22,-97,-269,-589,-6918,15.06,1007.52,103856
-8,64,16192,9,-1,-22,-100,-268,-587,-6916,15.06,1007.53,103873
32,116,16232,9,1,-21,-99,-269,-584,-6916,15.06,1007.52,103889
24,144,16162,9,-1,-22,-94,-267,-587,-6915,15.06,1007.51,103907
30,72,16174,8,0,-20,-95,-267,-590,-6913,15.06,1007.52,103924
18,130,16240,10,2,-22,-98,-265,-584,-6914,15.06,1007.5,103942
62,102,16214,8,0,-21,-99,-269,-584,-6916,15.06,1007.5,103959
-6,102,16212,9,0,-21,-95,-266,-586,-6913,15.06,1007.5,103975
-30,80,16240,8,-1,-21,-95,-266,-589,-6915,15.06,1007.51,103993
16,102,16256,8,0,-20,-95,-268,-588,-6920,15.06,1007.53,104010
26,136,16226,10,0,-20,-97,-266,-585,-6913,15.07,1007.53,104028
84,102,16250,9,1,-20,-97,-266,-585,-6912,15.07,1007.51,104045
14,64,16248,9,0,-21,-95,-263,-586,-6912,15.07,1007.51,104061
22,72,16212,8,0,-21,-96,-266,-584,-6918,15.07,1007.5,104079
16,130,16186,8,0,-21,-97,-270,-585,-6915,15.07,1007.5,104096
4,140,16166,8,1,-21,-95,-267,-584,-6917,15.07,1007.51,104113
-16,122,16238,9,-1,-21,-96,-267,-586,-6909,15.07,1007.52,104130
0,98,16254,8,-1,-21,-98,-269,-589,-6908,15.07,1007.51,104147
2,146,16266,9,-1,-21,-94,-267,-587,-6913,15.07,1007.5,104165
30,70,16180,8,-1,-21,-98,-265,-586,-6912,15.07,1007.5,104181
2,86,16236,8,0,-21,-95,-268,-588,-6914,15.07,1007.49,104199
22,52,16240,7,0,-20,-96,-270,-592,-6914,15.07,1007.48,104215
28,130,16192,9,0,-22,-96,-268,-587,-6908,15.07,1007.49,104232
-20,70,16184,9,-1,-22,-95,-268,-587,-6912,15.07,1007.49,104250
14,110,16226,8,0,-20,-95,-267,-585,-6911,15.08,1007.5,104267
-2,106,16248,9,-1,-20,-95,-267,-586,-6920,15.08,1007.49,104285
0,82,16196,9,1,-21,-95,-269,-589,-6909,15.08,1007.5,104301
10,88,16212,9,-2,-22,-94,-268,-589,-6918,15.08,1007.48,104318
26,118,16196,8,-1,-21,-93,-267,-587,-6915,15.08,1007.49,104336
16,76,16246,9,0,-21,-93,-265,-587,-6910,15.08,1007.5,104352
-20,124,16244,9,-1,-20,-98,-267,-590,-6912,15.08,1007.5,104371
8,136,16212,9,0,-21,-97,-266,-590,-6912,15.08,1007.49,104387
42,158,16118,9,0,-22,-95,-268,-590,-6911,15.08,1007.49,104404
8,96,16238,9,0,-22,-98,-267,-591,-6908,15.08,1007.48,104421
-12,142,16164,9,0,-21,-95,-267,-585,-6911,15.08,1007.49,104438
62,102,16190,8,-1,-22,-96,-267,-589,-6911,15.08,1007.47,104456
58,136,16264,7,-1,-22,-94,-266,-589,-6911,15.08,1007.47,104473
12,100,16210,9,0,-21,-96,-265,-583,-6910,15.08,1007.5,104491
22,102,16266,8,1,-20,-97,-265,-586,-6901,15.08,1007.5,104508
10,114,16272,9,-2,-22,-96,-267,-585,-6907,15.08,1007.5,104525
18,98,16242,8,0,-21,-94,-267,-589,-6910,15.08,1007.49,104542
-20,90,16192,9,1,-22,-98,-265,-588,-6906,15.08,1007.51,104559
20,104,16244,9,-2,-21,-97,-266,-583,-6906,15.08,1007.51,104577
-6,140,16226,9,1,-20,-97,-264,-587,-6912,15.08,1007.48,104594
22,74,16202,9,-2,-20,-96,-266,-590,-6910,15.09,1007.48,104610
4,92,16210,8,-2,-21,-100,-270,-587,-6906,15.09,1007.51,104628
22,116,16206,8,0,-19,-98,-265,-585,-6907,15.09,1007.51,104645
76,148,16170,9,1,-21,-98,-265,-585,-6906,15.09,1007.47,104663
26,118,16236,8,-2,-20,-96,-264,-586,-6909,15.09,1007.47,104680
-24,90,16226,8,0,-21,-94,-268,-591,-6905,15.09,1007.49,104696
54,124,16260,8,0,-21,-96,-267,-586,-6905,15.09,1007.49,104714
28,156,16240,7,0,-21,-96,-266,-584,-6909,15.09,1007.51,104731
-22,110,16212,8,1,-21,-97,-264,-585,-6900,15.09,1007.52,104749
-6,120,16224,10,0,-22,-98,-268,-591,-6907,15.09,1007.49,104766
50,122,16146,9,-2,-21,-96,-269,-588,-6911,15.09,1007.49,104783
18,84,16254,8,0,-21,-94,-265,-585,-6907,15.09,1007.48,104801
58,134,16112,8,0,-22,-95,-267,-585,-6905,15.09,1007.48,104817
28,96,16234,9,0,-21,-95,-266,-592,-6907,15.09,1007.51,104835
4,108,16272,9,0,-21,-96,-266,-587,-6911,15.09,1007.51,104851
38,126,16190,8,0,-21,-98,-266,-585,-6903,15.09,1007.49,104868
40,142,16246,7,-1,-21,-98,-265,-587,-6900,15.09,1007.49,104886
2,118,16216,9,0,-21,-96,-266,-588,-6906,15.09,1007.49,104903
18,68,16252,8,1,-21,-96,-267,-589,-6902,15.1,1007.49,104920
28,124,16256,9,0,-22,-95,-266,-585,-6908,15.1,1007.46,104937
36,88,16202,9,-2,-21,-92,-267,-588,-6909,15.1,1007.47,104954
16,110,16236,9,-1,-21,-98,-265,-588,-6897,15.1,1007.51,104972
-2,72,16228,9,-1,-21,-97,-266,-590,-6905,15.1,1007.51,104988
14,66,16190,8,0,-21,-96,-268,-588,-6909,15.1,1007.49,105006
-6,106,16186,9,0,-21,-96,-266,-586,-6905,15.1,1007.5,105023
-2,132,16220,9,0,-21,-97,-265,-586,-6904,15.1,1007.48,105039
68,148,16190,9,-1,-21,-98,-266,-587,-6896,15.1,1007.48,105057
20,118,16230,9,0,-20,-96,-269,-590,-6901,15.1,1007.49,105074
26,122,16272,8,0,-21,-96,-269,-582,-6894,15.1,1007.49,105092
30,108,16180,9,0,-22,-95,-266,-585,-6898,15.1,1007.5,105109
-18,122,16230,8,-2,-21,-95,-266,-586,-6898,15.1,1007.5,105126
16,142,16214,9,1,-21,-96,-268,-585,-6898,15.1,1007.48,105144
26,120,16220,9,0,-20,-96,-265,-588,-6895,15.1,1007.48,105160
30,98,16248,9,0,-20,-97,-267,-584,-6901,15.1,1007.48,105178
20,120,16184,9,0,-22,-97,-266,-586,-6902,15.11,1007.49,105195
22,158,16216,9,0,-21,-97,-264,-586,-6899,15.11,1007.48,105211
-16,126,16244,8,0,-21,-90,-269,-590,-6902,15.11,1007.48,105229
32,112,16202,9,1,-22,-96,-267,-587,-6896,15.11,1007.48,105246
58,132,16260,10,-2,-23,-94,-268,-585,-6896,15.11,1007.48,105264
14,106,16224,9,-1,-22,-97,-267,-585,-6903,15.11,1007.5,105282
10,98,16190,9,-1,-22,-96,-267,-588,-6896,15.11,1007.5,105298
26,96,16304,8,1,-21,-95,-268,-586,-6895,15.11,1007.48,105316
38,102,16198,8,0,-21,-96,-269,-588,-6893,15.11,1007.49,105333
18,76,16290,9,0,-21,-98,-268,-583,-6901,15.11,1007.49,105350
4,118,16244,9,-1,-21,-95,-268,-585,-6901,15.11,1007.5,105367
32,140,16182,9,0,-21,-95,-268,-588,-6900,15.11,1007.48,105384
10,110,16196,8,-1,-21,-98,-266,-589,-6898,15.11,1007.48,105402
-10,112,16236,8,-1,-22,-98,-267,-585,-6895,15.11,1007.47,105419
-22,48,16256,10,-1,-20,-97,-268,-585,-6890,15.11,1007.47,105437
8,84,16216,8,-1,-22,-96,-270,-592,-6903,15.11,1007.49,105454
20,98,16228,9,0,-20,-94,-268,-588,-6897,15.12,1007.5,105470
26,122,16192,9,-1,-20,-96,-268,-587,-6892,15.12,1007.47,105488
-40,126,16304,9,-1,-20,-97,-265,-586,-6901,15.12,1007.47,105505
18,106,16254,9,0,-21,-96,-270,-589,-6901,15.12,1007.5,105523
-28,136,16260,10,-1,-21,-98,-266,-593,-6892,15.12,1007.51,105541
14,134,16168,8,-1,-22,-94,-269,-585,-6897,15.12,1007.49,105559
6,148,16228,9,1,-20,-96,-264,-586,-6896,15.11,1007.49,105575
6,86,16174,8,-1,-21,-98,-265,-585,-6904,15.11,1007.48,105592
60,76,16222,9,0,-21,-95,-265,-590,-6892,15.12,1007.5,105609
-4,116,16216,8,1,-21,-96,-267,-589,-6890,15.12,1007.5,105626
12,96,16272,9,1,-20,-95,-265,-585,-6901,15.12,1007.5,105643
56,100,16204,9,-1,-21,-95,-264,-585,-6896,15.12,1007.48,105660
2,116,16262,8,-1,-21,-96,-266,-587,-6899,15.12,1007.48,105677
36,108,16226,9,-1,-21,-99,-266,-590,-6900,15.12,1007.48,105695
-18,122,16232,9,1,-21,-96,-270,-587,-6895,15.12,1007.48,105712
16,84,16212,9,0,-22,-96,-265,-585,-6892,15.12,1007.5,105730
30,80,16162,9,-1,-20,-96,-266,-587,-6890,15.12,1007.5,105746
12,98,16234,9,1,-20,-93,-267,-590,-6885,15.12,1007.49,105763
12,134,16188,8,-2,-21,-95,-269,-588,-6890,15.13,1007.5,105781
20,126,16218,8,0,-21,-97,-268,-585,-6894,15.13,1007.48,105798
38,112,16212,8,-1,-21,-95,-264,-585,-6900,15.13,1007.48,105816
4,88,16198,8,0,-21,-95,-266,-591,-6883,15.13,1007.49,105832
38,100,16210,8,1,-21,-98,-267,-589,-6888,15.13,1007.5,105849
-56,122,16252,8,0,-23,-98,-269,-589,-6885,15.13,1007.5,105867
6,120,16214,8,-1,-21,-94,-266,-589,-6892,15.13,1007.5,105884
30,110,16192,9,0,-21,-97,-267,-586,-6887,15.13,1007.5,105901
30,56,16204,9,0,-21,-97,-266,-587,-6888,15.14,1007.51,105918
48,68,16234,9,0,-20,-98,-266,-586,-6898,15.14,1007.49,105934
28,98,16204,9,0,-23,-97,-266,-587,-6888,15.14,1007.5,105952
56,104,16236,8,0,-22,-99,-267,-585,-6885,15.14,1007.49,105969
10,126,16240,10,-1,-22,-94,-268,-590,-6888,15.14,1007.49,105987
20,188,16244,9,0,-22,-96,-267,-589,-6888,15.14,1007.49,106004
4,108,16266,9,-3,-22,-95,-267,-590,-6886,15.14,1007.49,106020
44,112,16230,9,0,-21,-96,-266,-586,-6891,15.14,1007.49,106038
-8,120,16276,9,-1,-21,-97,-267,-586,-6892,15.14,1007.49,106055
20,96,16192,8,-1,-22,-98,-269,-589,-6888,15.14,1007.48,106073
26,124,16150,9,0,-22,-95,-267,-589,-6890,15.14,1007.47,106090
16,142,16190,8,0,-21,-93,-266,-585,-6890,15.14,1007.49,106106
-10,130,16176,10,1,-22,-99,-266,-585,-6883,15.14,1007.49,106125
2,102,16230,9,0,-21,-95,-267,-589,-6874,15.14,1007.46,106141
48,144,16244,8,-1,-20,-94,-267,-589,-6881,15.14,1007.47,106159
68,76,16168,9,-2,-22,-96,-265,-585,-6880,15.14,1007.5,106176
44,98,16224,9,-1,-21,-95,-265,-585,-6886,15.15,1007.51,106193
-4,84,16216,9,-2,-21,-96,-265,-586,-6881,15.15,1007.48,106210
36,116,16202,9,0,-21,-94,-267,-588,-6886,15.15,1007.48,106227
6,102,16278,10,-1,-21,-96,-270,-589,-6883,15.15,1007.5,106245
0,130,16238,8,-1,-20,-94,-265,-583,-6889,15.15,1007.51,106262
40,120,16240,8,-1,-20,-96,-266,-583,-6880,15.15,1007.47,106279
58,92,16236,9,-2,-21,-94,-266,-588,-6877,15.15,1007.48,106297
-12,72,16196,8,-1,-21,-95,-269,-591,-6888,15.15,1007.47,106314
40,90,16260,7,-1,-20,-96,-267,-587,-6883,15.15,1007.47,106332
78,142,16214,8,-1,-22,-98,-267,-582,-6882,15.15,1007.47,106349
70,58,16180,9,-1,-22,-97,-267,-587,-6880,15.15,1007.47,106365
26,116,16138,9,0,-20,-96,-266,-590,-6882,15.15,1007.49,106383
48,108,16184,8,0,-21,-98,-266,-586,-6887,15.15,1007.49,106400
50,126,16180,8,0,-21,-96,-266,-585,-6880,15.15,1007.48,106418
2,80,16290,9,0,-21,-95,-269,-584,-6883,15.15,1007.48,106434
62,50,16192,9,0,-20,-93,-266,-590,-6882,15.15,1007.48,106450
38,88,16276,9,-1,-22,-98,-266,-587,-6878,15.16,1007.49,106468
40,128,16214,9,0,-21,-97,-270,-585,-6886,15.16,1007.5,106485
24,108,16220,9,-1,-21,-96,-265,-586,-6887,15.16,1007.5,106503
30,100,16192,9,-1,-21,-98,-265,-589,-6888,15.16,1007.47,106520
-20,120,16192,9,0,-22,-98,-266,-589,-6887,15.16,1007.49,106537
0,138,16264,9,-1,-22,-96,-268,-589,-6872,15.16,1007.49,106555
24,126,16252,9,0,-21,-92,-266,-585,-6878,15.16,1007.48,106571
18,134,16216,8,0,-21,-95,-266,-587,-6879,15.16,1007.51,106589
34,132,16166,8,1,-21,-96,-269,-589,-6880,15.16,1007.52,106606
-2,106,16200,9,0,-23,-96,-268,-587,-6881,15.16,1007.47,106624
30,168,16194,10,0,-20,-97,-268,-585,-6880,15.16,1007.48,106641
20,98,16230,8,0,-21,-93,-265,-589,-6874,15.16,1007.49,106657
10,162,16178,8,0,-21,-100,-265,-588,-6878,15.17,1007.5,106675
32,126,16206,9,-1,-21,-98,-267,-590,-6872,15.17,1007.5,106692
58,122,16264,8,0,-22,-94,-267,-583,-6879,15.17,1007.5,106710
50,102,16258,8,0,-23,-95,-267,-585,-6882,15.17,1007.48,106727
24,102,16218,10,-2,-21,-96,-269,-585,-6884,15.17,1007.48,106744
28,110,16196,8,0,-21,-97,-267,-587,-6872,15.17,1007.5,106762
32,124,16246,9,0,-20,-94,-266,-586,-6867,15.17,1007.5,106779
-4,112,16200,8,-1,-20,-93,-266,-582,-6876,15.17,1007.48,106797
34,124,16216,10,0,-21,-98,-266,-586,-6879,15.17,1007.48,106814
58,94,16234,9,1,-21,-94,-265,-586,-6881,15.17,1007.48,106830
22,124,16184,8,1,-22,-96,-267,-583,-6880,15.17,1007.49,106848
-28,82,16174,8,0,-21,-98,-270,-588,-6869,15.17,1007.46,106865
-8,94,16288,9,0,-21,-96,-266,-587,-6872,15.17,1007.47,106882
-14,86,16274,9,-2,-21,-96,-265,-586,-6873,15.17,1007.49,106899
12,126,16206,8,-1,-20,-96,-265,-590,-6878,15.17,1007.49,106916
8,106,16228,9,-1,-21,-96,-269,-589,-6877,15.17,1007.48,106934
10,128,16264,9,1,-22,-93,-267,-586,-6877,15.18,1007.48,106951
28,132,16226,8,-1,-22,-96,-268,-585,-6866,15.18,1007.51,106969
36,102,16216,9,0,-21,-97,-265,-589,-6873,15.17,1007.51,106985
44,124,16214,8,0,-21,-96,-268,-589,-6878,15.17,1007.49,107002
-12,86,16176,9,0,-21,-96,-265,-590,-6876,15.18,1007.49,107020
24,80,16198,9,-1,-21,-96,-264,-583,-6870,15.18,1007.47,107037
40,114,16184,10,-1,-21,-96,-264,-586,-6875,15.18,1007.48,107055
6,124,16276,10,-1,-23,-93,-266,-591,-6876,15.18,1007.49,107072
44,96,16204,8,-2,-20,-95,-268,-588,-6870,15.18,1007.49,107089
-22,114,16150,8,-1,-22,-94,-264,-586,-6872,15.18,1007.46,107107
62,98,16232,8,0,-21,-95,-266,-586,-6875,15.18,1007.47,107123
28,120,16228,8,-1,-20,-97,-268,-586,-6880,15.18,1007.48,107141
-22,120,16254,9,-1,-20,-96,-267,-589,-6872,15.18,1007.48,107159
22,100,16262,8,-2,-21,-96,-266,-585,-6878,15.18,1007.5,107176
4,124,16178,9,0,-20,-95,-267,-585,-6871,15.18,1007.5,107193
-22,90,16244,9,1,-20,-97,-267,-586,-6873,15.18,1007.5,107210
34,90,16210,8,-1,-21,-99,-270,-590,-6870,15.18,1007.5,107228
10,86,16220,9,-1,-21,-96,-270,-587,-6872,15.18,1007.46,107245
-8,120,16190,8,0,-21,-96,-267,-585,-6873,15.19,1007.47,107261
54,130,16236,10,-1,-21,-96,-266,-585,-6864,15.19,1007.49,107280
32,96,16226,8,0,-20,-97,-266,-589,-6870,15.19,1007.5,107296
-4,108,16176,9,-1,-21,-96,-270,-589,-6868,15.19,1007.48,107314
80,130,16176,8,-1,-22,-97,-267,-584,-6873,15.19,1007.48,107331
62,132,16226,8,-1,-23,-98,-267,-585,-6874,15.19,1007.48,107348
-10,72,16162,8,-1,-21,-96,-266,-592,-6866,15.19,1007.48,107366
24,94,16222,8,0,-20,-98,-266,-588,-6862,15.19,1007.51,107383
-2,122,16216,7,1,-22,-96,-268,-587,-6870,15.19,1007.51,107400
0,142,16194,8,0,-21,-97,-267,-582,-6866,15.19,1007.49,107417
32,64,16268,9,0,-20,-95,-264,-582,-6864,15.2,1007.5,107433
-28,144,16202,9,1,-22,-97,-267,-590,-6864,15.2,1007.49,107451
22,90,16160,8,0,-22,-95,-269,-587,-6868,15.2,1007.49,107468
34,104,16208,8,0,-21,-94,-267,-586,-6866,15.2,1007.5,107486
16,126,16268,7,1,-20,-98,-268,-585,-6869,15.2,1007.51,107502
20,100,16220,8,1,-21,-96,-267,-589,-6869,15.2,1007.5,107520
12,102,16224,9,0,-20,-93,-267,-588,-6864,15.2,1007.5,107537
72,114,16216,9,0,-22,-97,-266,-588,-6865,15.2,1007.48,107554
50,114,16184,7,0,-21,-96,-265,-586,-6873,15.2,1007.49,107571
24,124,16260,9,-1,-22,-96,-267,-587,-6859,15.2,1007.51,107588
-12,102,16206,9,-1,-21,-98,-266,-588,-6861,15.2,1007.51,107607
12,110,16204,9,2,-20,-93,-267,-589,-6866,15.2,1007.51,107623
26,128,16186,8,0,-22,-98,-269,-585,-6862,15.21,1007.52,107640
58,100,16192,9,-1,-21,-96,-265,-585,-6863,15.21,1007.49,107658
-6,110,16172,9,-1,-21,-94,-266,-586,-6865,15.21,1007.49,107675
40,108,16180,7,1,-20,-99,-266,-587,-6869,15.21,1007.5,107693
6,110,16230,8,-1,-21,-96,-267,-585,-6865,15.21,1007.5,107710
30,78,16196,9,-1,-21,-97,-266,-585,-6867,15.21,1007.51,107726
26,130,16178,9,0,-23,-98,-265,-588,-6860,15.21,1007.52,107744
6,76,16242,8,0,-22,-95,-265,-590,-6861,15.21,1007.49,107761
-34,104,16198,8,-1,-21,-92,-268,-585,-6851,15.21,1007.5,107779
38,128,16196,9,0,-20,-96,-266,-585,-6860,15.21,1007.49,107796
-20,130,16118,9,0,-21,-98,-266,-585,-6864,15.21,1007.49,107813
10,114,16218,8,0,-23,-96,-265,-586,-6862,15.21,1007.49,107830
28,118,16196,9,0,-22,-94,-267,-588,-6855,15.22,1007.49,107847
32,102,16202,8,0,-20,-95,-265,-588,-6858,15.22,1007.5,107865
-2,118,16170,10,-1,-23,-99,-267,-584,-6853,15.22,1007.5,107882
16,146,16172,9,-2,-21,-97,-265,-585,-6861,15.22,1007.5,107899
26,114,16168,8,-1,-20,-94,-267,-588,-6858,15.22,1007.5,107917
12,124,16182,9,-1,-21,-97,-268,-590,-6865,15.22,1007.51,107934
34,98,16242,10,1,-20,-96,-266,-585,-6863,15.22,1007.51,107952
22,116,16232,9,0,-21,-95,-266,-585,-6866,15.22,1007.51,107969
-20,158,16192,7,-1,-22,-96,-265,-587,-6862,15.22,1007.51,107986
60,84,16208,9,-1,-21,-94,-265,-588,-6856,15.22,1007.49,108004
-18,80,16190,9,0,-20,-98,-270,-587,-6853,15.22,1007.49,108020
48,118,16224,8,0,-20,-94,-269,-586,-6855,15.22,1007.51,108038
32,138,16220,10,-1,-22,-98,-265,-585,-6858,15.23,1007.52,108055
16,86,16170,9,-1,-22,-95,-268,-588,-6859,15.23,1007.48,108072
36,114,16176,7,0,-22,-98,-266,-590,-6858,15.23,1007.48,108090
14,92,16238,8,0,-20,-97,-265,-588,-6861,15.23,1007.48,108106
32,98,16194,9,-1,-21,-95,-265,-585,-6858,15.23,1007.48,108124
40,84,16242,8,1,-22,-97,-267,-587,-6856,15.23,1007.48,108141
18,112,16208,10,-1,-21,-96,-268,-588,-6857,15.23,1007.49,108158
18,104,16278,9,0,-22,-96,-265,-586,-6862,15.23,1007.48,108176
-2,136,16214,9,0,-21,-93,-266,-585,-6855,15.23,1007.49,108192
-24,100,16240,9,0,-20,-96,-265,-585,-6865,15.23,1007.48,108211
4,126,16240,9,0,-22,-98,-268,-590,-6857,15.24,1007.48,108227
8,142,16188,8,-1,-21,-94,-268,-585,-6856,15.24,1007.48,108244
68,122,16190,8,-1,-21,-96,-267,-584,-6860,15.24,1007.49,108262
18,88,16186,8,0,-21,-96,-268,-584,-6854,15.24,1007.48,108278
20,92,16202,7,-1,-21,-97,-266,-590,-6849,15.24,1007.49,108296
22,96,16250,8,-1,-21,-96,-265,-587,-6857,15.24,1007.48,108313
20,130,16198,9,0,-22,-96,-266,-585,-6851,15.24,1007.48,108331
30,110,16232,9,0,-21,-97,-268,-586,-6859,15.24,1007.48,108347
6,86,16162,8,0,-20,-94,-268,-586,-6852,15.24,1007.49,108364
30,70,16224,8,1,-20,-97,-265,-587,-6855,15.24,1007.49,108381
4,102,16172,8,0,-21,-96,-264,-587,-6853,15.25,1007.5,108398
-2,102,16256,10,0,-22,-99,-267,-585,-6857,15.25,1007.47,108416
26,78,16202,9,-1,-22,-97,-264,-587,-6849,15.25,1007.47,108432
18,118,16282,8,-1,-21,-97,-268,-590,-6848,15.25,1007.47,108449
24,132,16202,9,-1,-21,-96,-267,-587,-6847,15.25,1007.48,108467
26,116,16262,8,0,-21,-98,-266,-588,-6855,15.25,1007.49,108484
30,58,16250,8,-1,-21,-97,-267,-587,-6851,15.25,1007.49,108502
-12,144,16228,9,-1,-20,-101,-266,-590,-6847,15.25,1007.52,108519
-24,84,16238,9,-1,-22,-95,-267,-588,-6856,15.25,1007.52,108536
16,108,16164,8,0,-21,-97,-271,-586,-6845,15.25,1007.5,108554
14,76,16278,9,0,-22,-98,-267,-585,-6845,15.25,1007.51,108571
-42,90,16182,9,-1,-21,-98,-268,-586,-6847,15.25,1007.5,108589
-68,144,16204,9,-1,-21,-96,-269,-590,-6843,15.26,1007.5,108606
32,114,16150,9,-1,-22,-95,-267,-586,-6847,15.26,1007.49,108623
36,150,16194,8,0,-21,-96,-267,-583,-6854,15.26,1007.49,108641
26,84,16206,8,-1,-21,-98,-264,-588,-6850,15.26,1007.5,108657
66,132,16226,9,0,-20,-95,-266,-587,-6852,15.26,1007.51,108675
16,98,16188,10,-2,-21,-98,-268,-588,-6855,15.26,1007.49,108692
20,74,16238,8,0,-22,-95,-268,-579,-6843,15.26,1007.5,108709
32,94,16248,10,-1,-20,-98,-264,-588,-6844,15.26,1007.48,108727
10,92,16244,8,0,-21,-97,-264,-586,-6849,15.26,1007.49,108743
-10,138,16212,9,0,-21,-98,-268,-587,-6846,15.26,1007.48,108761
34,118,16206,9,-2,-20,-96,-268,-587,-6848,15.26,1007.48,108778
22,98,16190,8,-1,-21,-96,-266,-586,-6853,15.26,1007.48,108795
68,110,16208,8,1,-21,-96,-267,-586,-6842,15.27,1007.49,108813
66,124,16196,9,0,-20,-94,-264,-587,-6844,15.27,1007.5,108830
-14,112,16202,8,-1,-21,-96,-268,-584,-6851,15.27,1007.5,108848
14,106,16270,9,0,-20,-95,-264,-585,-6842,15.27,1007.5,108865
6,128,16222,8,0,-21,-96,-264,-586,-6847,15.27,1007.5,108881
14,54,16188,9,0,-21,-95,-266,-586,-6839,15.27,1007.49,108899
38,132,16196,9,-1,-21,-100,-267,-586,-6840,15.27,1007.51,108916
2,104,16176,8,-1,-23,-99,-266,-589,-6846,15.27,1007.48,108934
-22,122,16218,8,-1,-20,-95,-264,-584,-6844,15.28,1007.49,108951
2,142,16238,9,0,-21,-101,-266,-579,-6848,15.28,1007.5,108968
22,92,16258,9,-1,-21,-94,-270,-588,-6846,15.28,1007.5,108985
30,102,16214,9,0,-21,-97,-267,-588,-6839,15.28,1007.49,109002
8,112,16238,9,1,-22,-96,-268,-589,-6837,15.28,1007.5,109020
34,130,16182,8,0,-22,-93,-265,-585,-6845,15.28,1007.52,109036
-22,136,16238,8,0,-22,-93,-266,-587,-6838,15.28,1007.52,109053
6,106,16182,8,1,-20,-96,-266,-588,-6839,15.28,1007.47,109071
-8,154,16184,9,0,-22,-94,-265,-588,-6843,15.28,1007.48,109088
4,108,16282,9,1,-22,-91,-267,-586,-6840,15.28,1007.47,109105
-14,94,16262,8,-3,-21,-96,-264,-585,-6847,15.28,1007.48,109122
2,100,16200,9,0,-21,-96,-270,-588,-6838,15.28,1007.49,109139
46,100,16158,8,-1,-21,-99,-266,-587,-6849,15.29,1007.5,109157
12,112,16266,8,0,-21,-99,-268,-585,-6841,15.29,1007.49,109173
-14,92,16214,10,-1,-21,-96,-265,-586,-6835,15.28,1007.49,109192
-18,96,16194,9,1,-21,-98,-269,-586,-6841,15.28,1007.47,109209
34,104,16202,9,1,-21,-97,-267,-591,-6844,15.29,1007.48,109225
30,78,16200,8,0,-20,-96,-269,-583,-6840,15.29,1007.52,109243
26,124,16194,9,-2,-21,-97,-263,-584,-6844,15.29,1007.52,109260
32,100,16256,8,1,-21,-96,-266,-587,-6841,15.29,1007.48,109278
18,114,16212,9,-1,-21,-97,-267,-588,-6841,15.29,1007.49,109295
-2,100,16164,8,0,-21,-103,-266,-587,-6833,15.29,1007.48,109313
-4,96,16182,9,1,-23,-97,-267,-585,-6843,15.29,1007.48,109329
10,110,16226,8,0,-20,-97,-264,-584,-6837,15.29,1007.47,109346
26,106,16136,8,0,-20,-97,-264,-587,-6837,15.3,1007.48,109364
28,82,16244,8,-1,-22,-98,-268,-587,-6837,15.3,1007.49,109380
-2,110,16196,9,0,-20,-100,-265,-587,-6840,15.3,1007.49,109398
38,114,16202,9,1,-22,-94,-269,-584,-6836,15.3,1007.49,109415
52,134,16142,9,0,-21,-96,-267,-586,-6830,15.3,1007.49,109432
32,86,16230,8,1,-22,-93,-263,-584,-6841,15.3,1007.48,109449
-10,132,16162,7,-1,-22,-95,-269,-590,-6837,15.3,1007.49,109467
14,124,16220,10,1,-20,-96,-266,-585,-6836,15.3,1007.48,109485
